#timestamp, p_RS_R_x [m], p_RS_R_y [m], p_RS_R_z [m], q_RS_w [], q_RS_x [], q_RS_y [], q_RS_z [], v_RS_R_x [m s^-1], v_RS_R_y [m s^-1], v_RS_R_z [m s^-1], b_w_RS_S_x [rad s^-1], b_w_RS_S_y [rad s^-1], b_w_RS_S_z [rad s^-1], b_a_RS_S_x [m s^-2], b_a_RS_S_y [m s^-2], b_a_RS_S_z [m s^-2]
1413393212255760384,-1.07611,0.492468,1.32992,0.602628,-0.00188113,-0.798012,0.00355984,-0.00182993,0.00436835,0.00183598,-0.00038986,0.00468968,0.0162821,-0.000579652,1.90775e-05,0.000154514
1413393212305760512,-1.16184,0.480341,1.35672,0.60268,-0.00273003,-0.797973,0.00294903,-0.00117601,0.000263066,0.000982907,-0.000393168,0.00475931,0.0165442,-0.001599,4.93776e-05,0.000434985
1413393212355760384,-1.22704,0.554861,1.26299,0.602635,-0.0154329,-0.797841,-0.00661058,-0.00314204,-0.00222081,0.000571163,-0.000407952,0.0048275,0.0168144,-0.00259018,5.1581e-05,0.000731386
1413393212405760512,-1.16736,0.496508,1.37908,0.602445,-0.0265592,-0.797574,-0.015197,-0.00233006,0.00193115,0.00133462,-0.000416005,0.00491574,0.0170919,-0.00308572,-0.000140324,0.0010201
1413393212455760384,-1.16424,0.492574,1.47866,0.602311,-0.0255894,-0.797714,-0.0148183,0.000969315,-0.000471464,0.00135964,-0.00041315,0.00498411,0.0173515,-0.00393229,-0.000419932,0.00138197
1413393212505760512,-1.18591,0.518271,0.0620362,0.60273,-0.0164933,-0.79774,-0.0074927,-0.00267695,-0.00507902,0.00139407,-0.000418683,0.00506917,0.0176025,-0.00573453,-0.00030824,0.00121711
1413393212555760384,-1.16887,0.496111,0.456159,0.602287,-0.0267058,-0.797684,-0.0154041,-0.00183525,-0.00549074,-0.00210021,-0.000429511,0.0051392,0.0178644,-0.00556231,-0.000386597,0.00249277
1413393212605760512,-1.18261,0.512454,0.235694,0.602611,-0.0149311,-0.797871,-0.00634331,-0.00175914,0.0014182,-0.00114809,-0.000462237,0.0052092,0.0181181,-0.00761331,-0.000408841,0.00196686
1413393212655760384,-1.18208,0.508821,0.532278,0.602489,-0.0241045,-0.797652,-0.0133273,-0.00203955,-0.000796446,-0.000498493,-0.000464193,0.00528608,0.0183898,-0.0078234,-0.000256166,0.00254856
1413393212705760512,-1.19126,0.518904,0.416004,0.602635,-0.0180117,-0.79777,-0.00833192,0.000810947,-0.00315042,0.00071225,-0.000459435,0.00536013,0.0186171,-0.0089902,-0.000115139,0.00265725
1413393212755760384,-1.19849,0.528682,0.693285,0.602802,-0.0167714,-0.797675,-0.00794712,3.1742e-05,0.00130079,0.00177465,-0.000471326,0.00543387,0.0188559,-0.0101499,-0.00111044,0.000988149
1413393212805760512,-1.165,0.48729,0.573319,0.602306,-0.03782,-0.796998,-0.0243113,-0.000535161,-0.00192876,0.000723713,-0.000446756,0.00551228,0.0191171,-0.00975068,-0.00494765,0.000998201
1413393212855760384,-1.16859,0.492313,0.426896,0.6026,-0.0313552,-0.797179,-0.0198984,0.000882779,0.00159359,0.00163056,-0.000447036,0.00557707,0.0193626,-0.0110268,-0.00833879,-0.000624458
1413393212905760512,-1.17056,0.494709,0.431242,0.602587,-0.0306505,-0.797231,-0.0192973,-0.00176785,0.00119258,0.000228076,-0.000471932,0.00564954,0.019609,-0.0116541,-0.00843479,-0.000264795
1413393212955760384,-1.1707,0.494213,0.470496,0.602503,-0.0306307,-0.797296,-0.0192624,-0.00318318,-0.00234423,-0.00170206,-0.000473956,0.00572171,0.0198519,-0.0122409,-0.00890591,0.000667163
1413393213005760512,-1.16997,0.49328,0.458935,0.602517,-0.0305883,-0.797286,-0.0193473,-0.00128248,0.000747185,-0.00126331,-0.000452873,0.00579037,0.0200923,-0.0129989,-0.0093568,0.00101029
1413393213055760384,-1.1697,0.492988,0.446393,0.602583,-0.030466,-0.797247,-0.0190665,-0.00135274,-0.000659254,-0.00192641,-0.000462275,0.00586053,0.0203303,-0.01384,-0.00970406,0.00136262
1413393213105760512,-1.16299,0.483917,0.492496,0.602637,-0.0340942,-0.796973,-0.0223471,-0.00118518,-0.00112748,-0.00522928,-0.000456529,0.0059275,0.0205705,-0.0151705,-0.0154391,-0.00113808
1413393213155760384,-1.1626,0.483417,0.514863,0.602634,-0.0341668,-0.796971,-0.0224452,-0.000229955,0.00060145,-0.00164511,-0.000446027,0.00597805,0.0208027,-0.0158428,-0.0157945,-0.0012468
1413393213205760512,-1.1612,0.482068,0.497338,0.602657,-0.0345578,-0.796928,-0.0227201,0.00098152,0.00151852,-0.000306895,-0.000439289,0.00606538,0.0210386,-0.0165285,-0.0165805,-0.00107916
1413393213255760384,-1.16055,0.481483,0.500315,0.60263,-0.0345812,-0.796944,-0.0228654,0.00229969,0.000674472,0.00255125,-0.000432815,0.00610626,0.0212439,-0.0169727,-0.0169571,-0.0014139
1413393213305760512,-1.15994,0.48139,0.490381,0.602625,-0.0346265,-0.796943,-0.0229492,0.00209371,-0.000498118,0.00271682,-0.000440816,0.00617911,0.021485,-0.0178811,-0.0175425,-0.00119044
1413393213355760384,-1.15909,0.480329,0.500559,0.60266,-0.0350253,-0.796901,-0.0228751,0.0042975,0.00402778,0.000860935,-0.000445407,0.00626215,0.0217425,-0.0188609,-0.0182133,-0.00150647
1413393213405760512,-1.16434,0.487701,0.544488,0.60263,-0.0319758,-0.797118,-0.0204467,0.00477226,0.0046266,0.00401339,-0.000457788,0.00631858,0.0219646,-0.0189841,-0.013731,-0.000379456
1413393213455760384,-1.1724,0.498501,0.607554,0.602532,-0.0278199,-0.797439,-0.0165181,0.00300069,0.00135024,0.00235663,-0.000485446,0.00639527,0.0221754,-0.0182855,-0.00656201,0.00284303
1413393213505760512,-1.18239,0.511392,0.658872,0.602224,-0.022877,-0.797904,-0.0123351,-0.000430749,0.000197607,0.00195787,-0.000512124,0.00646503,0.022368,-0.0167527,0.000483183,0.00958299
1413393213555760384,-1.17245,0.49982,0.532976,0.60197,-0.0237958,-0.798055,-0.01322,-0.000887894,0.000731748,0.00206536,-0.00050849,0.00653309,0.022593,-0.0157612,-0.00160089,0.0136802
1413393213605760512,-1.16878,0.492929,0.616907,0.602144,-0.0282926,-0.797714,-0.016566,-0.0003228,0.001412,0.00170098,-0.000497261,0.00660818,0.0228472,-0.017534,-0.00218239,0.00963902
1413393213655760384,-1.16538,0.490133,0.522453,0.602115,-0.0281718,-0.797738,-0.0166826,-0.00125268,-0.000797485,-0.0001189,-0.000513481,0.00666642,0.0230184,-0.0173979,-0.00305095,0.0104073
1413393213705760512,-1.17323,0.499916,0.554738,0.602003,-0.0240097,-0.798023,-0.0132203,-0.00125096,-0.00314596,-0.00061601,-0.000537552,0.00674098,0.0232498,-0.0169883,-0.00118434,0.0153695
1413393213755760384,-1.17165,0.497485,0.556408,0.602003,-0.0248764,-0.797985,-0.0139448,-0.000471276,-0.00152825,-0.00228774,-0.000536076,0.00678353,0.0234408,-0.0174194,-0.00115019,0.0144335
1413393213805760512,-1.17323,0.499421,0.554046,0.60198,-0.0237709,-0.79805,-0.0131059,-0.000614564,-0.000662175,-0.0051094,-0.000543977,0.00682397,0.0236358,-0.0172773,-0.000817982,0.0158076
1413393213855760384,-1.17137,0.496643,0.562794,0.602108,-0.0249952,-0.797901,-0.0139843,-0.00126107,-0.00129184,-0.003205,-0.000567052,0.00690082,0.023859,-0.0186996,-0.00117951,0.0140082
1413393213905760512,-1.17087,0.495922,0.571436,0.602092,-0.0252315,-0.797902,-0.0142222,-0.00052313,-0.00345348,-0.00330969,-0.000527162,0.00694537,0.0240536,-0.0191313,-0.000902621,0.0132266
1413393213955760384,-1.17341,0.498964,0.563373,0.601933,-0.0235312,-0.798096,-0.012887,0.000466289,-0.00411059,-0.000430053,-0.000550615,0.00699416,0.0242734,-0.0191584,-0.000470134,0.0163014
1413393214005760512,-1.17376,0.499447,0.56719,0.601813,-0.0230575,-0.798208,-0.0124274,0.0009637,0.00958654,0.00303691,-0.000551677,0.00707842,0.0245001,-0.0198993,-0.000305482,0.017567
1413393214055760384,-1.17479,0.500387,0.56177,0.601947,-0.0226556,-0.798122,-0.0122007,0.00210089,0.00604055,0.000982238,-0.000538966,0.00710365,0.0246891,-0.0205488,0.000602703,0.0182506
1413393214105760512,-1.17491,0.500907,0.558515,0.601623,-0.0219264,-0.798395,-0.0116361,-0.000658118,0.0015738,0.00236396,-0.00055145,0.00718254,0.0248741,-0.0200726,6.92868e-05,0.019651
1413393214155760384,-1.17482,0.500854,0.548643,0.601854,-0.0219015,-0.798221,-0.0116666,0.00194888,-0.000533467,0.00119056,-0.000545233,0.00724384,0.0250762,-0.0206252,5.46477e-05,0.0189814
1413393214205760512,-1.17592,0.50168,0.555115,0.601747,-0.0216446,-0.798313,-0.0113005,0.000554578,0.00276535,0.000654171,-0.000569113,0.00730588,0.0253041,-0.0205961,-0.000125215,0.020162
1413393214255760384,-1.17662,0.502364,0.543268,0.601844,-0.0213467,-0.798248,-0.0113684,0.00131354,0.00255437,0.000258828,-0.000560554,0.00735722,0.0254898,-0.0206573,0.000409489,0.0202632
1413393214305760512,-1.17786,0.503968,0.555323,0.601764,-0.0210243,-0.798324,-0.0108397,0.002874,-0.000591318,-0.00151057,-0.000581768,0.00743502,0.0257214,-0.0208059,0.000665866,0.0223783
1413393214355760384,-1.1812,0.507045,0.644466,0.601826,-0.0206249,-0.798293,-0.0104321,0.00263103,0.00403388,0.000160294,-0.000619631,0.00749213,0.0258738,-0.0212562,0.00175656,0.0224714
1413393214405760512,-1.17974,0.506181,0.592756,0.601727,-0.0202537,-0.79838,-0.0102389,0.00243321,0.00115191,-0.000549717,-0.000627292,0.00758712,0.0260513,-0.0208804,0.0014093,0.0239584
1413393214455760384,-1.17838,0.505892,0.560703,0.601663,-0.0196315,-0.79845,-0.00965997,0.000705931,0.00147424,0.000399259,-0.00065869,0.00758031,0.0262469,-0.0199265,0.000962422,0.0270037
1413393214505760512,-1.16338,0.486411,0.560317,0.602508,-0.0284984,-0.797427,-0.0168328,-0.000786499,0.000119478,0.00225152,-0.000618578,0.00763332,0.0264483,-0.0266716,-0.00248275,0.00466379
1413393214555760384,-1.16255,0.485186,0.557385,0.602627,-0.0291979,-0.797304,-0.0171641,-0.000690213,-0.00147719,0.00071164,-0.000642085,0.00772638,0.0265995,-0.0272478,-0.00176454,0.00252772
1413393214605760512,-1.1614,0.483834,0.600716,0.602528,-0.0295794,-0.797353,-0.0177105,-0.00180228,0.000744707,-1.21902e-05,-0.000644024,0.00775981,0.0268041,-0.0270694,-0.00310277,0.0040753
1413393214655760384,-1.16043,0.482142,0.578637,0.602313,-0.0297363,-0.797504,-0.0179314,0.000159384,-0.00149578,0.000819414,-0.000674275,0.00782909,0.0269649,-0.0260872,-0.00619316,0.0101106
1413393214705760512,-1.15913,0.48048,0.572189,0.602129,-0.0297496,-0.797643,-0.0179298,-0.001189,4.24784e-05,-0.00217838,-0.000680227,0.00791615,0.0271676,-0.0251793,-0.00610124,0.0145795
1413393214755760384,-1.16002,0.480748,0.538899,0.601735,-0.0296738,-0.797943,-0.0179575,-0.000271127,-0.00126221,-0.00139162,-0.000698329,0.00795447,0.0273301,-0.0227898,-0.00632368,0.0234039
1413393214805760512,-1.16405,0.483072,0.564018,0.601001,-0.0296748,-0.798504,-0.0176141,0.000790562,-0.000950011,-0.00136503,-0.000708212,0.00797516,0.0274873,-0.0179662,-0.00307688,0.0404365
1413393214855760384,-1.18342,0.507808,0.525619,0.59982,-0.0198565,-0.799833,-0.00947975,-0.000873699,-0.000972848,-0.00107391,-0.000796325,0.00807626,0.0276686,-0.00966962,0.00745069,0.07211
1413393214905760512,-1.17324,0.489722,0.519628,0.599357,-0.027155,-0.799875,-0.0153303,-0.00101578,-0.00145012,-0.00169629,-0.000768204,0.00808878,0.0278664,-0.00692674,0.00302707,0.0795684
1413393214955760384,-1.1741,0.489188,0.537711,0.598642,-0.0277533,-0.800385,-0.0155387,-0.000778599,-0.000700364,-0.000713629,-0.000747574,0.00812658,0.0280531,-0.00253005,0.00672811,0.0946074
1413393215005760512,-1.17483,0.48751,0.542232,0.597718,-0.0283999,-0.801046,-0.0159025,-0.000931166,0.000160387,3.21557e-05,-0.000762176,0.00818641,0.0281956,0.00311174,0.00845476,0.115345
1413393215055760384,-1.17694,0.487923,0.552174,0.59691,-0.0295081,-0.80159,-0.0167948,-0.00231932,-0.00338722,0.0018771,-0.000763221,0.00826524,0.0283949,0.0065589,0.00970026,0.129518
1413393215105760512,-1.17642,0.485575,0.54559,0.595986,-0.031283,-0.802191,-0.0176419,-0.00309226,-0.00859264,-0.0032848,-0.000767881,0.00831516,0.0285808,0.0116363,0.0109596,0.148661
1413393215155760384,-1.1656,0.479323,0.503102,0.597274,-0.0346034,-0.801008,-0.0213163,-0.00219904,-0.00329644,-0.00123747,-0.000780253,0.008347,0.0287572,0.00248959,-0.00305246,0.12022
1413393215205760512,-1.16484,0.477415,0.497453,0.596768,-0.0356334,-0.801314,-0.0222597,-0.00248885,-0.00418136,-0.00316038,-0.000751259,0.00842955,0.0289433,0.00370548,-0.00431015,0.128141
1413393215255760384,-1.16709,0.479395,0.499831,0.59647,-0.0350842,-0.801577,-0.0216424,-0.00209624,-0.00366729,-0.00436739,-0.000774153,0.00841665,0.0290703,0.00606111,-0.00287066,0.137185
1413393215305760512,-1.16704,0.478232,0.48874,0.595926,-0.0357133,-0.801931,-0.022432,-0.00320142,-0.00216853,-0.0043494,-0.000795896,0.00850145,0.0292609,0.00864797,-0.00696302,0.149067
1413393215355760384,-1.1681,0.479167,0.488637,0.595749,-0.0357628,-0.802064,-0.0223244,-0.00192245,-0.00363699,-0.00467881,-0.000794345,0.00852928,0.0293938,0.00914411,-0.00515554,0.153887
1413393215405760512,-1.16913,0.478239,0.49713,0.59508,-0.036173,-0.802529,-0.0227631,-0.00256778,-0.00126486,-0.00320923,-0.000815877,0.00858839,0.0295934,0.0115702,-0.00871922,0.166025
1413393215455760384,-1.16947,0.477736,0.502775,0.594879,-0.0362271,-0.802671,-0.0229448,-0.00440974,-0.000156527,-0.000840237,-0.000844707,0.00871044,0.0297538,0.0105273,-0.00905324,0.167309
1413393215505760512,-1.16993,0.476933,0.500083,0.594374,-0.036487,-0.803025,-0.023228,-0.00217455,-0.00118737,-0.00230395,-0.000851704,0.00874791,0.0299175,0.0124239,-0.0143401,0.17694
1413393215555760384,-1.17122,0.478326,0.479476,0.593836,-0.0361828,-0.803438,-0.023185,-0.00575393,-0.00216233,0.000280276,-0.000890704,0.00879561,0.0300484,0.0152033,-0.0157899,0.187614
1413393215605760512,-1.17192,0.478118,0.471539,0.593413,-0.0360692,-0.803751,-0.0233536,-0.00802973,-0.00361589,0.00348177,-0.000890289,0.00886004,0.0302088,0.0169212,-0.0176397,0.196943
1413393215655760384,-1.17118,0.476977,0.472879,0.593288,-0.0368601,-0.803799,-0.0236334,-0.00744286,-0.000121915,0.00390277,-0.000890397,0.00892964,0.0303383,0.01553,-0.0177261,0.195141
1413393215705760512,-1.16778,0.474865,0.451746,0.593359,-0.0376269,-0.803698,-0.024064,-0.00393461,-0.00291772,-0.00262681,-0.000895782,0.00898702,0.0304733,0.0111143,-0.0159176,0.18041
1413393215755760384,-1.16517,0.47259,0.452708,0.593407,-0.0382714,-0.803611,-0.0247595,-0.000856127,8.359e-06,-0.0042775,-0.000859797,0.00902695,0.0305976,0.00725184,-0.0150222,0.166885
1413393215805760512,-1.16356,0.471647,0.450995,0.593307,-0.0384799,-0.803668,-0.0249836,0.00257648,-0.00219905,0.010352,-0.000842269,0.00908158,0.0307509,0.00466814,-0.0142857,0.159692
1413393215855760384,-1.16036,0.469652,0.437579,0.593585,-0.0391182,-0.803416,-0.0254937,-7.19043e-05,0.00145325,0.00780507,-0.000899775,0.00911046,0.0309552,0.000361023,-0.0141971,0.149094
1413393215905760512,-1.15708,0.46798,0.418829,0.594104,-0.0397119,-0.802996,-0.0257222,1.64959e-05,0.000837545,0.00801309,-0.000867691,0.00915548,0.0311357,-0.00447754,-0.0116248,0.135074
1413393215955760384,-1.15504,0.467026,0.406202,0.59445,-0.0402514,-0.802718,-0.0255591,0.0049244,0.00386243,0.00634803,-0.000833961,0.00919872,0.0313205,-0.00770466,-0.0110712,0.126459
1413393216005760512,-1.15306,0.46563,0.416491,0.594942,-0.0402968,-0.802334,-0.0260796,0.0109969,0.00359297,0.00768338,-0.000874368,0.00923684,0.031466,-0.0109764,-0.00897319,0.116701
1413393216055760384,-1.15259,0.46527,0.418061,0.595076,-0.040036,-0.802237,-0.0264184,0.00350427,0.00536191,0.00370937,-0.000796839,0.00927076,0.0316343,-0.0125098,-0.00504015,0.114251
1413393216105760512,-1.15074,0.464358,0.415971,0.595388,-0.0405117,-0.801982,-0.0264108,0.00273264,0.00524531,-0.00659605,-0.000801404,0.009311,0.0317915,-0.0158369,-0.00322449,0.105862
1413393216155760384,-1.14988,0.464155,0.420641,0.596239,-0.0402077,-0.801363,-0.0264517,0.000908272,0.00340253,-0.00298691,-0.000816927,0.00938315,0.0319643,-0.0202491,-0.000695771,0.0953917
1413393216205760512,-1.1487,0.462989,0.423851,0.596202,-0.040444,-0.801375,-0.0265794,-0.00160254,0.00643333,-0.00532349,-0.000792707,0.00941157,0.0321145,-0.0217025,-0.000479086,0.0930116
1413393216255760384,-1.14739,0.461927,0.423856,0.595572,-0.0405544,-0.801842,-0.0264458,-0.010252,0.00625201,0.000516366,-0.000806825,0.0094628,0.0322638,-0.0249359,0.00265076,0.0842692
1413393216305760512,-1.14727,0.461405,0.424197,0.594593,-0.040733,-0.802565,-0.0262451,-0.00833924,-0.0022648,-0.000756821,-0.000833036,0.00952595,0.0324599,-0.0264872,0.00461988,0.0834893
1413393216355760384,-1.14655,0.460717,0.420893,0.594323,-0.041325,-0.802741,-0.0260651,-0.00036547,0.00247225,-0.0032051,-0.000823028,0.0095984,0.0325649,-0.0274471,0.00640395,0.0808993
1413393216405760512,-1.14539,0.460041,0.413069,0.594091,-0.041366,-0.802912,-0.0260142,-0.00206784,-0.0102168,-0.006759,-0.000812634,0.00964633,0.0326987,-0.0294076,0.00742441,0.0751713
1413393216455760384,-1.14446,0.458583,0.409621,0.594356,-0.0412099,-0.802714,-0.0263302,-0.00626922,-0.00500078,0.0113371,-0.000848982,0.0097055,0.0328631,-0.0310513,0.00999877,0.0721438
1413393216505760512,-1.1432,0.457886,0.399877,0.593022,-0.0417917,-0.803659,-0.0266685,0.00239993,0.00484788,0.0119527,-0.000829873,0.00973742,0.0330159,-0.0344741,0.0111391,0.0625679
1413393216555760384,-1.14147,0.456812,0.391891,0.592526,-0.042857,-0.803932,-0.027743,0.00144,0.00930241,-0.0208797,-0.000853535,0.00978776,0.033153,-0.0366146,0.0121726,0.0570602
1413393216605760512,-1.1404,0.456778,0.387253,0.592263,-0.0444446,-0.804049,-0.0274802,0.00264359,0.0194531,-0.0138676,-0.00088048,0.00980148,0.0333112,-0.0378297,0.0132102,0.0531248
1413393216655760384,-1.1393,0.456261,0.389909,0.593041,-0.0447243,-0.803423,-0.0285356,0.00226012,0.00774331,0.0219168,-0.000811499,0.00982973,0.0334676,-0.0390968,0.0166853,0.0480574
1413393216705760512,-1.13833,0.456329,0.393653,0.593669,-0.0445207,-0.802875,-0.0311085,0.0211479,0.0189739,0.0345063,-0.000845513,0.00982313,0.033531,-0.0390225,0.0179729,0.0474027
1413393216755760384,-1.13649,0.455725,0.401211,0.593774,-0.0444766,-0.802656,-0.0346029,0.0141152,0.0174437,0.0468869,-0.000829957,0.00984012,0.0337027,-0.0397782,0.0192388,0.0461707
1413393216805760512,-1.13398,0.455674,0.391903,0.594409,-0.0446293,-0.80205,-0.0374587,0.0183846,0.00634201,0.0863363,-0.000824164,0.00990162,0.0338731,-0.0412415,0.0204869,0.0433537
1413393216855760384,-1.13038,0.455363,0.365475,0.595112,-0.0451179,-0.80136,-0.0403492,0.0274218,0.00634826,0.0925633,-0.000800629,0.00990564,0.0340021,-0.0412631,0.0234406,0.0417855
1413393216905760512,-1.12823,0.45388,0.367829,0.596669,-0.0462343,-0.799987,-0.0432327,0.0387802,-0.00869198,0.129065,-0.000799703,0.00997669,0.0341796,-0.0416114,0.0264609,0.0439298
1413393216955760384,-1.12601,0.443358,0.49886,0.596113,-0.0467639,-0.800136,-0.0473882,0.0466252,-0.0108889,0.143802,-0.000769845,0.010053,0.034338,-0.0393608,0.0285612,0.0512924
1413393217005760512,-1.13462,0.472404,0.390136,0.598873,-0.0352574,-0.799031,-0.0407158,0.0644326,-0.0197422,0.161895,-0.000858202,0.0100856,0.0344578,-0.0597407,0.0353727,-0.0157788
1413393217055760384,-1.11682,0.435859,0.534571,0.592899,-0.0478325,-0.802245,-0.0508498,0.0649935,-0.0455079,0.226537,-0.000783997,0.0101332,0.0345979,-0.0355235,0.0307433,0.0589133
1413393217105760512,-1.11082,0.431876,0.549394,0.591524,-0.048272,-0.803206,-0.0512872,0.0789958,-0.0520558,0.273443,-0.000782521,0.0101383,0.0347207,-0.0324842,0.0305485,0.0655782
1413393217155760384,-1.11146,0.436794,0.523594,0.589335,-0.0484597,-0.804847,-0.0505685,0.0839282,-0.0734115,0.275234,-0.000799125,0.0101841,0.0348604,-0.0259749,0.0291448,0.0850434
1413393217205760512,-1.10169,0.428121,0.558936,0.58845,-0.0484104,-0.8055,-0.0505218,0.0918513,-0.0890821,0.260796,-0.000792645,0.0102281,0.034992,-0.0245197,0.0259889,0.0893602
1413393217255760384,-1.09836,0.424654,0.571663,0.588902,-0.047922,-0.805141,-0.0514354,0.0948347,-0.0981683,0.24046,-0.000758147,0.0102414,0.0351531,-0.0264575,0.0309886,0.0834872
1413393217305760512,-1.09116,0.416582,0.598859,0.588771,-0.0479002,-0.805192,-0.0521525,0.101704,-0.116557,0.200179,-0.000787164,0.0103029,0.0352989,-0.0306048,0.0386674,0.0748456
1413393217355760384,-1.09307,0.416772,0.606695,0.588715,-0.0478668,-0.805264,-0.0517148,0.110186,-0.136967,0.164644,-0.000788241,0.0103128,0.035409,-0.0369306,0.0466467,0.0576326
1413393217405760512,-1.08704,0.411501,0.602335,0.588188,-0.0474879,-0.805636,-0.0522596,0.125723,-0.145908,0.151354,-0.000790909,0.0103573,0.0355432,-0.0417084,0.0441575,0.0464848
1413393217455760384,-1.07585,0.401156,0.591703,0.588134,-0.0473228,-0.805696,-0.0520952,0.132884,-0.172362,0.135507,-0.000785229,0.0104202,0.0356968,-0.0491728,0.0406783,0.0278434
1413393217505760512,-1.06557,0.389333,0.617328,0.588216,-0.046659,-0.805696,-0.0517718,0.130806,-0.194595,0.124023,-0.000803095,0.0104378,0.035803,-0.0530524,0.0517547,0.0164
1413393217555760384,-1.06307,0.382793,0.634846,0.589294,-0.0459358,-0.804976,-0.051357,0.151389,-0.196603,0.101882,-0.000820553,0.0104264,0.0358474,-0.0593273,0.0537342,-0.00585224
1413393217605760512,-1.05512,0.377463,0.626868,0.590654,-0.0431167,-0.804216,-0.050054,0.149762,-0.228164,0.0852213,-0.000839656,0.0105295,0.0360371,-0.0679413,0.0553838,-0.0303793
1413393217655760384,-1.04745,0.366923,0.628732,0.590864,-0.042279,-0.804147,-0.0493981,0.159717,-0.232249,0.0941115,-0.000831381,0.0105545,0.0361542,-0.0692293,0.0573703,-0.0359691
1413393217705760512,-1.03843,0.353189,0.630529,0.591031,-0.0429901,-0.803936,-0.0502137,0.162767,-0.249878,0.139031,-0.00085027,0.0106088,0.0363031,-0.0703261,0.0555438,-0.0388696
1413393217755760384,-1.02969,0.339585,0.636023,0.591485,-0.0429677,-0.803624,-0.0498738,0.169493,-0.278097,0.185933,-0.000860104,0.0106701,0.0364026,-0.0703947,0.0559228,-0.0416848
1413393217805760512,-1.02041,0.325088,0.643381,0.591528,-0.0431241,-0.803605,-0.0495379,0.179718,-0.282972,0.219327,-0.000840868,0.0107012,0.0365268,-0.0713641,0.0557773,-0.0467394
1413393217855760384,-1.01065,0.309753,0.655518,0.591752,-0.0439459,-0.80343,-0.0489827,0.19016,-0.297292,0.243507,-0.000860713,0.010747,0.036684,-0.0715988,0.0567577,-0.0504159
1413393217905760512,-1.00091,0.293712,0.668023,0.591981,-0.0439799,-0.803291,-0.048459,0.189219,-0.324884,0.280153,-0.00083447,0.010765,0.0367732,-0.0711948,0.0572907,-0.0562416
1413393217955760384,-0.991058,0.277137,0.682718,0.592719,-0.0442247,-0.802737,-0.0483903,0.199188,-0.328419,0.297609,-0.00083584,0.0108057,0.0369254,-0.0713857,0.0579143,-0.0578145
1413393218005760512,-0.980651,0.259777,0.69656,0.592596,-0.0453884,-0.802835,-0.0471869,0.202859,-0.350672,0.271326,-0.000863296,0.0108378,0.0370537,-0.0717,0.0577246,-0.0619278
1413393218055760384,-0.969937,0.241256,0.708529,0.593416,-0.0473651,-0.802278,-0.0443278,0.203965,-0.363918,0.215261,-0.000865361,0.010854,0.0371259,-0.0727258,0.0572371,-0.0665286
1413393218105760512,-0.959159,0.22243,0.717825,0.59331,-0.0501328,-0.802359,-0.0411196,0.209007,-0.356353,0.182804,-0.000851819,0.0108665,0.0372341,-0.0742952,0.0568231,-0.0713625
1413393218155760384,-0.948099,0.203474,0.723232,0.593774,-0.0540645,-0.802011,-0.0359072,0.21056,-0.375731,0.12883,-0.000876236,0.0108772,0.0373764,-0.0766379,0.0568894,-0.0745713
1413393218205760512,-0.936606,0.184134,0.72782,0.59462,-0.0577678,-0.801375,-0.0298171,0.222417,-0.371179,0.0764948,-0.000883103,0.0109216,0.037452,-0.0798332,0.0553919,-0.0794942
1413393218255760384,-0.924612,0.165698,0.731515,0.594225,-0.0625059,-0.801512,-0.0238362,0.242126,-0.339571,0.027797,-0.000868195,0.0109733,0.0375681,-0.0832115,0.0544969,-0.0838483
1413393218305760512,-0.912297,0.148058,0.733153,0.593367,-0.0660739,-0.801986,-0.0192004,0.231793,-0.341793,-0.00741801,-0.00092089,0.0110425,0.0377083,-0.0860931,0.0550031,-0.0867969
1413393218355760384,-0.900057,0.131307,0.732647,0.593375,-0.065835,-0.802006,-0.0189484,0.238875,-0.317031,-0.0462693,-0.000887329,0.0110394,0.0377994,-0.0885452,0.053629,-0.0908204
1413393218405760512,-0.887807,0.115708,0.730191,0.594031,-0.0637764,-0.801559,-0.023744,0.243451,-0.28343,-0.0690572,-0.000885901,0.0111087,0.0379234,-0.0907283,0.0528298,-0.0919216
1413393218455760384,-0.875271,0.100617,0.724532,0.594063,-0.0606458,-0.801603,-0.0290636,0.240147,-0.291598,-0.0947538,-0.000923975,0.0111521,0.0380498,-0.0926142,0.0524898,-0.0945367
1413393218505760512,-0.86242,0.0860082,0.714858,0.594731,-0.0570974,-0.801152,-0.0345095,0.248463,-0.275143,-0.0850775,-0.000888939,0.0111928,0.0381585,-0.0948989,0.0512503,-0.0984601
1413393218555760384,-0.849398,0.072046,0.705211,0.595049,-0.0543389,-0.800843,-0.0401747,0.260483,-0.256782,-0.0800431,-0.000884648,0.0112018,0.0382631,-0.0964047,0.0508433,-0.1026
1413393218605760512,-0.83604,0.0579064,0.698374,0.596016,-0.0517264,-0.800107,-0.0437956,0.261846,-0.283681,-0.0699569,-0.000905892,0.0112514,0.0383902,-0.0979402,0.0500192,-0.106404
1413393218655760384,-0.822311,0.0434358,0.69545,0.59674,-0.049923,-0.799543,-0.0462604,0.275758,-0.275073,-0.0680542,-0.000891513,0.0112681,0.0384872,-0.0990653,0.0491149,-0.109957
1413393218705760512,-0.80793,0.0289254,0.690623,0.596901,-0.0505433,-0.799357,-0.0467296,0.28577,-0.272189,-0.0524654,-0.000898649,0.0112917,0.0385683,-0.100264,0.0486672,-0.112964
1413393218755760384,-0.793269,0.0138391,0.687242,0.595418,-0.0494962,-0.800475,-0.0476182,0.288147,-0.301288,-0.0462162,-0.000932766,0.011356,0.038682,-0.102637,0.0479896,-0.118731
1413393218805760512,-0.778237,-0.00144243,0.685859,0.591432,-0.0504414,-0.803455,-0.0460938,0.301494,-0.290456,-0.0417865,-0.000914156,0.0113974,0.0388115,-0.103738,0.0486206,-0.123404
1413393218855760384,-0.763066,-0.0170082,0.684799,0.584983,-0.0543228,-0.808124,-0.0421742,0.29765,-0.290175,-0.032637,-0.000922252,0.0114722,0.0388998,-0.105171,0.0484313,-0.12767
1413393218905760512,-0.748461,-0.0325691,0.686613,0.578375,-0.0568126,-0.812892,-0.038227,0.279437,-0.301778,-0.031908,-0.000945013,0.0114527,0.0390084,-0.105237,0.0503074,-0.130615
1413393218955760384,-0.734748,-0.04757,0.682051,0.572794,-0.0589616,-0.816813,-0.0353359,0.263308,-0.277371,-0.00969758,-0.000915183,0.0114841,0.0390818,-0.10588,0.0519859,-0.13359
1413393219005760512,-0.722108,-0.0621767,0.679567,0.56927,-0.0611048,-0.819182,-0.0337513,0.236717,-0.266023,0.0079352,-0.00092382,0.0115368,0.0392134,-0.107241,0.0532528,-0.134966
1413393219055760384,-0.710842,-0.0763966,0.670747,0.567576,-0.0621079,-0.820368,-0.0315715,0.206771,-0.265036,0.0272406,-0.00094157,0.0115585,0.0393036,-0.108213,0.0530167,-0.13962
1413393219105760512,-0.700723,-0.0901603,0.66474,0.568019,-0.0617267,-0.820081,-0.0318014,0.190894,-0.245099,0.0564242,-0.000949887,0.0116074,0.0394105,-0.110852,0.0517192,-0.143535
1413393219155760384,-0.691873,-0.102565,0.675095,0.56942,-0.0622331,-0.819105,-0.0309151,0.171789,-0.234085,0.0650993,-0.000987379,0.0116675,0.0395415,-0.112564,0.0518194,-0.144608
1413393219205760512,-0.68372,-0.11535,0.67637,0.570343,-0.0619043,-0.818497,-0.0306693,0.152684,-0.230794,0.0832012,-0.000994285,0.011667,0.0396053,-0.113321,0.0531975,-0.147212
1413393219255760384,-0.676673,-0.126855,0.683867,0.572079,-0.0612373,-0.817349,-0.0302755,0.136645,-0.217409,0.107087,-0.000962519,0.011736,0.0397166,-0.115172,0.0547809,-0.152528
1413393219305760512,-0.670502,-0.138816,0.699522,0.573557,-0.0607503,-0.816351,-0.0302224,0.10767,-0.196424,0.115108,-0.000972435,0.0117853,0.0398391,-0.117421,0.0541152,-0.159735
1413393219355760384,-0.666311,-0.147138,0.714002,0.573924,-0.0602616,-0.816159,-0.0294222,0.0687778,-0.18858,0.123118,-0.00096642,0.0117579,0.039951,-0.117163,0.0600148,-0.162551
1413393219405760512,-0.663546,-0.15628,0.721048,0.574522,-0.060342,-0.815787,-0.0278396,0.0390935,-0.170175,0.11521,-0.000956327,0.0118682,0.0400636,-0.119032,0.0601507,-0.164888
1413393219455760384,-0.662453,-0.164579,0.718995,0.575807,-0.0602137,-0.814889,-0.0278662,-0.000805928,-0.148033,0.0677839,-0.000997481,0.0119119,0.0401677,-0.120113,0.0622853,-0.168029
1413393219505760512,-0.663056,-0.173151,0.7233,0.57701,-0.0603177,-0.814018,-0.0282171,-0.0286676,-0.140868,0.0241775,-0.00100412,0.0119623,0.0403079,-0.122838,0.0638963,-0.171603
1413393219555760384,-0.665327,-0.179633,0.716619,0.578723,-0.0600329,-0.812831,-0.0279648,-0.0499429,-0.128797,-0.00726193,-0.000982402,0.0120044,0.0404158,-0.124612,0.0674176,-0.173337
1413393219605760512,-0.668033,-0.185317,0.711363,0.580412,-0.0598235,-0.81163,-0.0282821,-0.0552829,-0.117596,-0.00738393,-0.00102119,0.012034,0.0405214,-0.125617,0.0730596,-0.174382
1413393219655760384,-0.671131,-0.190739,0.706435,0.582642,-0.0597807,-0.810047,-0.0279028,-0.0641012,-0.110389,0.0297522,-0.000999129,0.0121037,0.0406319,-0.127472,0.0781548,-0.176796
1413393219705760512,-0.674126,-0.196002,0.712217,0.585436,-0.0593597,-0.808029,-0.0288398,-0.0731005,-0.0932335,0.0930712,-0.00098128,0.0121656,0.0407525,-0.128363,0.0843112,-0.178186
1413393219755760384,-0.674897,-0.205023,0.715354,0.588382,-0.0586756,-0.805877,-0.0304357,-0.0907468,-0.0833242,0.166318,-0.00100503,0.012185,0.0408309,-0.128357,0.0898022,-0.179286
1413393219805760512,-0.683766,-0.208506,0.68379,0.591179,-0.0581529,-0.803754,-0.0332565,-0.0735587,-0.0747644,0.217366,-0.00100163,0.0121853,0.0409231,-0.126933,0.101846,-0.176268
1413393219855760384,-0.697433,-0.147779,0.775858,0.587882,-0.0457122,-0.807364,-0.0216653,-0.0655774,-0.0649651,0.326212,-0.00117003,0.0123191,0.0410444,-0.0904497,0.153006,-0.065521
1413393219905760512,-0.687292,-0.214908,0.700281,0.592884,-0.057849,-0.802495,-0.0338308,-0.0691872,-0.0614049,0.341834,-0.00103281,0.0122943,0.0411542,-0.123143,0.143796,-0.163437
1413393219955760384,-0.715175,-0.128,0.780761,0.586872,-0.0408954,-0.808421,-0.019077,-0.0754897,-0.0522803,0.340923,-0.00125259,0.0124667,0.041263,-0.0635007,0.217349,0.0182701
1413393220005760512,-0.727602,-0.105866,0.812405,0.587554,-0.0417859,-0.807992,-0.0135331,-0.0684389,-0.054179,0.302368,-0.0012492,0.0125632,0.0413858,-0.0558148,0.319248,0.0383228
1413393220055760384,-0.704148,-0.119863,0.765781,0.59744,-0.0560688,-0.799925,-0.0064852,-0.0329768,-0.0498765,0.254589,-0.00120108,0.0124904,0.0415384,-0.110205,0.631698,-0.161033
1413393220105760512,-0.708512,-0.117104,0.775941,0.597971,-0.0558083,-0.799547,-0.00630934,-0.0332781,-0.0492985,0.232238,-0.00117335,0.0125541,0.0416002,-0.109648,0.637254,-0.159112
1413393220155760384,-0.711906,-0.110145,0.786284,0.597844,-0.0544733,-0.799745,-0.00484661,-0.0296986,-0.0608022,0.212522,-0.00114036,0.0126428,0.0416989,-0.105881,0.665993,-0.149649
1413393220205760512,-0.714,-0.111981,0.798388,0.598432,-0.0538443,-0.799343,-0.00552247,-0.029835,-0.0656794,0.232487,-0.00115626,0.012595,0.0417457,-0.103456,0.666128,-0.145891
1413393220255760384,-0.715711,-0.114699,0.813329,0.598948,-0.0543913,-0.798919,-0.00562899,-0.0232359,-0.0638032,0.229921,-0.00114871,0.0126609,0.0418781,-0.104603,0.666982,-0.143705
1413393220305760512,-0.716414,-0.119166,0.815003,0.599351,-0.0535398,-0.798664,-0.00700587,-0.0116114,-0.084776,0.234989,-0.00116527,0.012683,0.0420015,-0.105398,0.663789,-0.141312
1413393220355760384,-0.716973,-0.123057,0.83226,0.599852,-0.0537761,-0.798273,-0.00685672,-0.0055789,-0.0851168,0.23759,-0.00115988,0.0127152,0.0420943,-0.106764,0.664545,-0.139947
1413393220405760512,-0.715889,-0.12938,0.844098,0.599907,-0.054242,-0.798197,-0.00716437,0.00381825,-0.0777502,0.250045,-0.00115147,0.012747,0.0421555,-0.108101,0.662088,-0.139303
1413393220455760384,-0.715418,-0.134796,0.862148,0.599306,-0.0545163,-0.798625,-0.00767436,0.0169218,-0.096841,0.244659,-0.0011573,0.0127659,0.0422706,-0.110965,0.658699,-0.137822
1413393220505760512,-0.714975,-0.141394,0.871393,0.59756,-0.0551167,-0.799892,-0.00763492,0.0234736,-0.1006,0.231557,-0.00117551,0.0128282,0.0423783,-0.114417,0.65134,-0.136068
1413393220555760384,-0.71302,-0.150974,0.867845,0.596031,-0.0560241,-0.800963,-0.00823969,0.0369939,-0.097671,0.192453,-0.0011884,0.0128199,0.0424174,-0.117293,0.638973,-0.135801
1413393220605760512,-0.709574,-0.162542,0.885377,0.595202,-0.0568114,-0.801512,-0.00921257,0.0292355,-0.112744,0.137199,-0.00118747,0.0128996,0.0425734,-0.119971,0.627127,-0.135233
1413393220655760384,-0.7076,-0.171793,0.913647,0.595803,-0.0573293,-0.801023,-0.00975471,0.0294142,-0.121066,0.0847564,-0.00118927,0.0129262,0.042667,-0.121587,0.622854,-0.133948
1413393220705760512,-0.703955,-0.184878,0.897545,0.596216,-0.0583606,-0.800637,-0.0100779,0.0423032,-0.109794,0.0338727,-0.00118053,0.0129249,0.0427449,-0.12167,0.611899,-0.133698
1413393220755760384,-0.701956,-0.193414,0.882886,0.595763,-0.0600862,-0.80087,-0.00798677,0.0295958,-0.136457,-0.0145372,-0.00118819,0.0129516,0.0428112,-0.122377,0.606256,-0.130779
1413393220805760512,-0.702539,-0.195452,0.90273,0.59375,-0.0628858,-0.802179,-0.00387392,0.0395997,-0.130054,-0.0069835,-0.00116634,0.0130226,0.0429136,-0.122747,0.61148,-0.132094
1413393220855760384,-0.701429,-0.201919,0.899937,0.592079,-0.0663989,-0.80314,-0.000293965,0.047038,-0.0980348,0.0429917,-0.00119052,0.0130731,0.0430018,-0.121464,0.609295,-0.129488
1413393220905760512,-0.699793,-0.208212,0.896082,0.590918,-0.0680547,-0.803854,0.00193635,0.0516574,-0.115166,0.0983609,-0.00117485,0.0130908,0.0430893,-0.118831,0.607488,-0.126628
1413393220955760384,-0.70957,-0.151041,0.929922,0.586947,-0.0669466,-0.806678,0.0168307,0.0511131,-0.075957,0.207994,-0.00121931,0.0132177,0.0431812,-0.0847263,0.79962,-0.0644967
1413393221005760512,-0.705022,-0.156127,0.939068,0.587061,-0.0677078,-0.806547,0.0160503,0.044074,-0.0324383,0.231403,-0.00121698,0.0132238,0.0432817,-0.0803064,0.806898,-0.0581316
1413393221055760384,-0.706261,-0.154037,0.950325,0.586246,-0.067948,-0.807132,0.0154068,0.0351399,-0.0349581,0.261824,-0.00122729,0.0132684,0.0433808,-0.0769997,0.81084,-0.0535769
1413393221105760512,-0.69202,-0.228865,0.945217,0.588297,-0.0708159,-0.805537,-0.00120893,0.0269068,-0.0155297,0.272522,-0.001166,0.0131712,0.0434846,-0.113707,0.589249,-0.121649
1413393221155760384,-0.686157,-0.234229,0.97423,0.587529,-0.0717722,-0.806011,-0.00220779,0.0284927,0.00981784,0.285158,-0.00115294,0.0132011,0.0435318,-0.110314,0.597028,-0.117611
1413393221205760512,-0.676161,-0.249412,0.945853,0.589482,-0.0703177,-0.804641,-0.0109775,0.0213846,-0.00728162,0.291114,-0.00114173,0.0132352,0.0436662,-0.142617,0.476235,-0.196282
1413393221255760384,-0.674824,-0.248749,0.964787,0.588111,-0.0701003,-0.805655,-0.0114686,0.0206803,0.00947091,0.28521,-0.00115194,0.0132629,0.0437254,-0.142125,0.477315,-0.197032
1413393221305760512,-0.673324,-0.248858,0.977096,0.586356,-0.069817,-0.806916,-0.0141157,0.0184877,0.0247602,0.271284,-0.00116042,0.0132886,0.0438143,-0.142405,0.477147,-0.199132
1413393221355760384,-0.672242,-0.247832,0.998543,0.584682,-0.0696607,-0.808132,-0.0147578,3.04099e-05,0.016971,0.309415,-0.00115934,0.0133373,0.0439015,-0.141949,0.476992,-0.201595
1413393221405760512,-0.67214,-0.247888,1.01162,0.583186,-0.0687461,-0.809262,-0.016242,-0.0183728,0.0370531,0.313895,-0.00114381,0.0134082,0.0440027,-0.141554,0.472374,-0.20243
1413393221455760384,-0.673413,-0.246233,1.0242,0.582651,-0.0676299,-0.809684,-0.0188941,-0.0357565,0.0613879,0.29578,-0.00116004,0.0133922,0.0440685,-0.140668,0.468652,-0.204847
1413393221505760512,-0.676705,-0.243555,1.03259,0.581851,-0.0667078,-0.810299,-0.0203924,-0.0530278,0.055296,0.235326,-0.00115032,0.0134548,0.0441824,-0.140415,0.46295,-0.205673
1413393221555760384,-0.677416,-0.247433,1.04359,0.581651,-0.0650776,-0.81045,-0.0248806,-0.0610508,0.0565049,0.187362,-0.00113248,0.0134774,0.0442358,-0.144826,0.44192,-0.222697
1413393221605760512,-0.68074,-0.245354,1.05466,0.581648,-0.0638531,-0.810482,-0.0269866,-0.0866867,0.0527966,0.170004,-0.00115255,0.0134809,0.0443537,-0.143283,0.439031,-0.225148
1413393221655760384,-0.684235,-0.247095,1.06234,0.582375,-0.0629407,-0.809966,-0.0288617,-0.106786,0.0326633,0.173776,-0.00117244,0.0134879,0.0444086,-0.143286,0.42908,-0.231178
1413393221705760512,-0.689777,-0.244896,1.07147,0.585311,-0.0619558,-0.807897,-0.0295729,-0.112863,0.0363308,0.183367,-0.00116378,0.0135075,0.0444813,-0.14153,0.430039,-0.23195
1413393221755760384,-0.695751,-0.242044,1.08019,0.588763,-0.0618604,-0.80542,-0.0288236,-0.120443,0.0264996,0.175095,-0.00111489,0.0136454,0.0447487,-0.142097,0.437672,-0.232137
1413393221805760512,-0.701644,-0.241478,1.08897,0.592039,-0.0608345,-0.803103,-0.0285558,-0.12515,0.0077934,0.178826,-0.00107266,0.0135697,0.0447215,-0.138437,0.436142,-0.232664
1413393221855760384,-0.707852,-0.241043,1.09759,0.593971,-0.0597823,-0.801739,-0.0289741,-0.123433,0.0228948,0.16795,-0.00105962,0.0134902,0.0447284,-0.134916,0.433997,-0.231394
1413393221905760512,-0.714185,-0.24033,1.10602,0.595145,-0.0598067,-0.800898,-0.0280813,-0.128429,0.000277376,0.15523,-0.00102841,0.0135034,0.0448362,-0.134309,0.434693,-0.231452
1413393221955760384,-0.720546,-0.2402,1.1137,0.596682,-0.0593322,-0.799846,-0.026408,-0.127665,-0.00460507,0.131009,-0.000875056,0.0136806,0.0451462,-0.137397,0.439886,-0.23414
1413393222005760512,-0.726407,-0.240518,1.11902,0.596756,-0.0592874,-0.799806,-0.0260271,-0.12228,0.00586576,0.0771644,-0.000839705,0.0136945,0.0451764,-0.136488,0.437504,-0.233949
1413393222055760384,-0.732105,-0.241243,1.12129,0.597614,-0.0591024,-0.799203,-0.0252909,-0.118642,-0.0157985,0.0170072,-0.00086299,0.0137299,0.0452297,-0.136698,0.432268,-0.233612
1413393222105760512,-0.737875,-0.242327,1.1206,0.598329,-0.0587142,-0.79874,-0.0238759,-0.121771,-0.0284811,-0.0453035,-0.000882995,0.0137602,0.0452939,-0.136635,0.429599,-0.232548
1413393222155760384,-0.743691,-0.243798,1.11724,0.598453,-0.0579832,-0.798703,-0.0237988,-0.113993,-0.0177156,-0.10197,-0.000865631,0.0138385,0.0453828,-0.138186,0.426883,-0.232734
1413393222205760512,-0.748949,-0.245432,1.11103,0.598411,-0.0575584,-0.798771,-0.0235828,-0.106495,-0.0286369,-0.162083,-0.000867129,0.0138727,0.0454867,-0.138649,0.423817,-0.233637
1413393222255760384,-0.753706,-0.247058,1.10164,0.597425,-0.0572748,-0.799558,-0.0225879,-0.101735,-0.0389143,-0.213819,-0.000927372,0.0139473,0.0455639,-0.140773,0.421505,-0.23531
1413393222305760512,-0.758344,-0.248641,1.09011,0.595116,-0.0564228,-0.801335,-0.0227222,-0.100768,-0.0223739,-0.244942,-0.000912625,0.0139787,0.0457087,-0.14182,0.420936,-0.237577
1413393222355760384,-0.763234,-0.250228,1.07796,0.59108,-0.0566458,-0.804314,-0.0222371,-0.106212,-0.0326211,-0.241877,-0.000914241,0.0139894,0.045737,-0.142806,0.420203,-0.239421
1413393222405760512,-0.768394,-0.252045,1.06672,0.587099,-0.0562653,-0.80728,-0.0211649,-0.112447,-0.0390473,-0.22126,-0.000950365,0.0140469,0.0458305,-0.144209,0.420327,-0.241841
1413393222455760384,-0.773817,-0.253667,1.05699,0.58373,-0.0551045,-0.809768,-0.0223473,-0.118254,-0.030863,-0.194026,-0.000897625,0.0140904,0.045935,-0.143975,0.421645,-0.245038
1413393222505760512,-0.780236,-0.255661,1.04826,0.581095,-0.0547498,-0.81171,-0.0214019,-0.145698,-0.0456064,-0.162709,-0.000891777,0.0141165,0.0460014,-0.144399,0.421651,-0.245405
1413393222555760384,-0.787847,-0.257903,1.04174,0.58012,-0.0565083,-0.812366,-0.018171,-0.155997,-0.0520546,-0.101782,-0.000883355,0.0141986,0.0460843,-0.145681,0.422407,-0.246304
1413393222605760512,-0.796198,-0.260027,1.03718,0.578781,-0.05609,-0.813357,-0.0177864,-0.177729,-0.0368118,-0.0737364,-0.000838238,0.0142759,0.0462276,-0.144937,0.421853,-0.245811
1413393222655760384,-0.805093,-0.261884,1.03442,0.577631,-0.0565377,-0.814168,-0.016646,-0.200644,-0.0356799,-0.0150399,-0.000820866,0.0142744,0.0462585,-0.143592,0.420082,-0.24578
1413393222705760512,-0.815549,-0.263484,1.03469,0.57781,-0.0547894,-0.81414,-0.017637,-0.222574,-0.0325469,0.0338078,-0.000845441,0.0143134,0.0463395,-0.143864,0.417923,-0.244012
1413393222755760384,-0.826979,-0.264859,1.03672,0.576403,-0.0549185,-0.815155,-0.0163028,-0.246155,-0.0215273,0.0671356,-0.000900529,0.0142998,0.0464031,-0.144245,0.414289,-0.241476
1413393222805760512,-0.839515,-0.265819,1.04074,0.574719,-0.0548959,-0.816361,-0.0154784,-0.27005,-0.0166753,0.117856,-0.000932873,0.0143269,0.0464758,-0.145424,0.412626,-0.239651
1413393222855760384,-0.852965,-0.266437,1.0471,0.572774,-0.0546736,-0.817759,-0.0145563,-0.282585,-0.010129,0.148435,-0.000964352,0.0143717,0.0465564,-0.14574,0.412121,-0.239822
1413393222905760512,-0.867441,-0.266737,1.05576,0.571795,-0.0543678,-0.818491,-0.0129204,-0.302433,-0.0014633,0.190956,-0.000957325,0.0144086,0.0466414,-0.145697,0.411662,-0.238676
1413393222955760384,-0.883072,-0.266605,1.06636,0.57021,-0.0535449,-0.819666,-0.0119105,-0.331599,0.00538557,0.238262,-0.000974465,0.0144362,0.0467334,-0.145986,0.412653,-0.239822
1413393223005760512,-0.899953,-0.266277,1.07885,0.571346,-0.051938,-0.818973,-0.012255,-0.351069,0.00977159,0.249618,-0.00097859,0.0144009,0.0467847,-0.144335,0.413509,-0.238658
1413393223055760384,-0.91827,-0.26596,1.09223,0.573314,-0.050701,-0.817683,-0.011625,-0.384292,0.0118031,0.271127,-0.00095878,0.0144303,0.0468917,-0.144909,0.414169,-0.23822
1413393223105760512,-0.937947,-0.265225,1.10562,0.575129,-0.0500131,-0.816461,-0.010838,-0.411859,0.0231072,0.272551,-0.00100128,0.0143949,0.0469466,-0.14337,0.413645,-0.236716
1413393223155760384,-0.959042,-0.26394,1.11907,0.576583,-0.0486621,-0.815501,-0.0119319,-0.438882,0.0226472,0.276657,-0.00100042,0.0143917,0.0470235,-0.143674,0.414743,-0.238771
1413393223205760512,-0.981161,-0.26306,1.13257,0.578236,-0.0463555,-0.814441,-0.0134152,-0.45725,0.0146502,0.282383,-0.00105573,0.014361,0.0471202,-0.142419,0.412927,-0.238771
1413393223255760384,-1.00446,-0.262152,1.1454,0.579096,-0.0449462,-0.813888,-0.0146607,-0.474799,0.0203768,0.240058,-0.00106282,0.0143713,0.0471253,-0.144026,0.415985,-0.238516
1413393223305760512,-1.02866,-0.261696,1.1567,0.580638,-0.0445017,-0.812815,-0.0145237,-0.490851,0.00292474,0.200979,-0.0010707,0.0143727,0.0472312,-0.143726,0.416787,-0.236369
1413393223355760384,-1.05348,-0.261674,1.16459,0.581594,-0.0436653,-0.812163,-0.0152836,-0.504264,-0.00509547,0.116853,-0.00106125,0.0143982,0.0473157,-0.144744,0.418283,-0.234935
1413393223405760512,-1.07878,-0.262207,1.16805,0.583236,-0.043082,-0.811008,-0.0156951,-0.510443,-0.0138781,0.0177398,-0.00106726,0.0143671,0.0473711,-0.143517,0.416724,-0.233581
1413393223455760384,-1.10446,-0.262639,1.16612,0.585182,-0.0429145,-0.809597,-0.0165228,-0.522303,-0.0223262,-0.0950235,-0.0010999,0.0144913,0.0474114,-0.147208,0.419421,-0.236803
1413393223505760512,-1.13059,-0.263885,1.15917,0.587816,-0.0419668,-0.807713,-0.0176594,-0.529207,-0.0303648,-0.189619,-0.00104578,0.0145513,0.0475017,-0.147829,0.422324,-0.236013
1413393223555760384,-1.15704,-0.265697,1.14793,0.590409,-0.0424837,-0.805788,-0.0178578,-0.538627,-0.0406092,-0.263826,-0.0010198,0.0145785,0.0475826,-0.147663,0.423931,-0.235566
1413393223605760512,-1.18381,-0.267692,1.13343,0.592883,-0.0430246,-0.803917,-0.0188714,-0.530205,-0.0419278,-0.332006,-0.00100976,0.0146048,0.0476072,-0.146825,0.424424,-0.235725
1413393223655760384,-1.21012,-0.269909,1.11609,0.594792,-0.043439,-0.802446,-0.0204139,-0.532707,-0.0492983,-0.362814,-0.00100086,0.0146403,0.0476629,-0.146139,0.425446,-0.235599
1413393223705760512,-1.23665,-0.272652,1.09819,0.595489,-0.0449189,-0.801822,-0.0213925,-0.527862,-0.0580049,-0.33845,-0.000982875,0.0146594,0.047705,-0.144789,0.425604,-0.233876
1413393223755760384,-1.26292,-0.276064,1.0826,0.596075,-0.0460976,-0.801284,-0.0226772,-0.527394,-0.0667418,-0.266462,-0.00100394,0.0147012,0.0477721,-0.143665,0.423653,-0.231524
1413393223805760512,-1.28851,-0.279923,1.07067,0.59691,-0.0478642,-0.800535,-0.023477,-0.515797,-0.0840686,-0.211122,-0.00101465,0.0147288,0.0478271,-0.141351,0.42272,-0.230605
1413393223855760384,-1.31391,-0.284367,1.06303,0.595472,-0.0494273,-0.801483,-0.0244103,-0.487896,-0.090237,-0.118974,-0.00102907,0.0146978,0.0478484,-0.13798,0.421073,-0.228705
1413393223905760512,-1.33837,-0.288952,1.05785,0.59557,-0.0502085,-0.801272,-0.0272001,-0.501124,-0.0859465,-0.056139,-0.00105931,0.0146805,0.0478992,-0.13507,0.419338,-0.227671
1413393223955760384,-1.36301,-0.293923,1.05669,0.594976,-0.0512021,-0.801601,-0.0286123,-0.49614,-0.101145,-0.0010804,-0.00111461,0.0146629,0.0479425,-0.133278,0.415977,-0.22524
1413393224005760512,-1.38762,-0.299309,1.0576,0.595792,-0.0526047,-0.800874,-0.0294282,-0.49465,-0.11177,0.0294129,-0.0011798,0.0145961,0.0479739,-0.130203,0.413394,-0.222767
1413393224055760384,-1.41252,-0.305328,1.05862,0.595085,-0.0544815,-0.80127,-0.0295494,-0.499441,-0.127462,0.0198082,-0.00120755,0.0146426,0.0480809,-0.131168,0.413877,-0.218935
1413393224105760512,-1.43757,-0.312023,1.05902,0.596165,-0.0566232,-0.800318,-0.0295577,-0.501247,-0.160894,-0.0264664,-0.00119719,0.0146829,0.0481219,-0.130851,0.420724,-0.218459
1413393224155760384,-1.46262,-0.320552,1.05684,0.596542,-0.0578906,-0.799916,-0.0303533,-0.503583,-0.180968,-0.0557281,-0.00120541,0.0147261,0.0482093,-0.130123,0.418232,-0.213524
1413393224205760512,-1.48777,-0.330103,1.0523,0.596482,-0.0571433,-0.799946,-0.0321097,-0.497021,-0.198099,-0.12326,-0.00120515,0.0147893,0.0483305,-0.128813,0.41705,-0.209869
1413393224255760384,-1.51281,-0.340173,1.04523,0.597451,-0.0578733,-0.799105,-0.0336788,-0.495802,-0.206967,-0.153267,-0.00121201,0.0148268,0.0484167,-0.126511,0.413655,-0.205578
1413393224305760512,-1.53738,-0.350837,1.0363,0.598949,-0.0591623,-0.797875,-0.0339923,-0.489433,-0.220753,-0.212935,-0.00121264,0.01487,0.0484892,-0.123652,0.411873,-0.202865
1413393224355760384,-1.56229,-0.362079,1.02428,0.598982,-0.0583736,-0.797846,-0.035427,-0.493074,-0.225092,-0.259545,-0.00122574,0.014905,0.0485524,-0.119529,0.409947,-0.199294
1413393224405760512,-1.58678,-0.373447,1.01012,0.598439,-0.0600063,-0.798062,-0.0369787,-0.478847,-0.22001,-0.303872,-0.00121017,0.0149641,0.0486443,-0.115242,0.408084,-0.195131
1413393224455760384,-1.61034,-0.384681,0.993383,0.599398,-0.0636476,-0.797032,-0.0375738,-0.456112,-0.225468,-0.354588,-0.00120629,0.0150001,0.0487053,-0.111073,0.406065,-0.192341
1413393224505760512,-1.63244,-0.395721,0.974157,0.599618,-0.0685966,-0.79641,-0.0385267,-0.426411,-0.215091,-0.40693,-0.0012106,0.0149906,0.0487575,-0.107161,0.40574,-0.190602
1413393224555760384,-1.65325,-0.406329,0.952574,0.599482,-0.0759846,-0.795852,-0.038306,-0.409726,-0.212547,-0.441464,-0.00118834,0.0150146,0.0488383,-0.104834,0.407384,-0.191262
1413393224605760512,-1.67328,-0.416906,0.930449,0.600399,-0.0835114,-0.794352,-0.0394093,-0.395763,-0.204299,-0.459636,-0.00120819,0.0150517,0.0488979,-0.102571,0.406653,-0.190816
1413393224655760384,-1.69307,-0.426829,0.908506,0.600351,-0.091967,-0.793379,-0.0408662,-0.389758,-0.186154,-0.414648,-0.00121558,0.0150689,0.0489603,-0.099513,0.407691,-0.189868
1413393224705760512,-1.71203,-0.436334,0.888213,0.598206,-0.100471,-0.793882,-0.0425153,-0.380026,-0.194515,-0.405265,-0.00121989,0.0150895,0.0490318,-0.0961441,0.410081,-0.18675
1413393224755760384,-1.73117,-0.445413,0.868176,0.596095,-0.10937,-0.794213,-0.0439975,-0.388028,-0.181466,-0.38649,-0.00122248,0.0151108,0.0490842,-0.0921545,0.411797,-0.182678
1413393224805760512,-1.74991,-0.454265,0.849177,0.593714,-0.117702,-0.794585,-0.0478105,-0.35919,-0.166941,-0.369095,-0.00119534,0.0151425,0.0491625,-0.0883619,0.413727,-0.177496
1413393224855760384,-1.76782,-0.462736,0.83169,0.59131,-0.126109,-0.794894,-0.0509205,-0.357012,-0.176735,-0.320816,-0.00119442,0.0151579,0.0492074,-0.0830687,0.414578,-0.170515
1413393224905760512,-1.78582,-0.470757,0.817468,0.590046,-0.132014,-0.794646,-0.0543769,-0.358318,-0.160909,-0.263546,-0.00117446,0.0151577,0.0492713,-0.0786849,0.415749,-0.163208
1413393224955760384,-1.80256,-0.478499,0.805098,0.587908,-0.138076,-0.794999,-0.0572479,-0.323102,-0.13767,-0.202413,-0.00115825,0.0151659,0.0493362,-0.0749172,0.415826,-0.155325
1413393225005760512,-1.81863,-0.485499,0.796271,0.586047,-0.141435,-0.795486,-0.0612093,-0.320224,-0.142201,-0.130807,-0.0011633,0.0151774,0.0493918,-0.072074,0.415993,-0.148025
1413393225055760384,-1.8344,-0.491803,0.79036,0.584113,-0.142932,-0.796332,-0.0651042,-0.309735,-0.120583,-0.11615,-0.00115428,0.0151983,0.049462,-0.0705255,0.416633,-0.141324
1413393225105760512,-1.84982,-0.496831,0.787113,0.582845,-0.145008,-0.796619,-0.0682833,-0.288763,-0.0879736,-0.0449143,-0.00115668,0.0152185,0.0495186,-0.0692194,0.417878,-0.135743
1413393225155760384,-1.86394,-0.50158,0.784628,0.582491,-0.146205,-0.796438,-0.0708222,-0.277531,-0.100684,-0.058996,-0.00115508,0.0152356,0.0495821,-0.0683242,0.419897,-0.131085
1413393225205760512,-1.87729,-0.506181,0.781842,0.581891,-0.147971,-0.796555,-0.070772,-0.265419,-0.0840699,-0.0474568,-0.00114484,0.0152259,0.0496493,-0.0679818,0.422257,-0.12766
1413393225255760384,-1.89002,-0.510285,0.778863,0.580978,-0.148598,-0.796942,-0.0725823,-0.247366,-0.0719443,-0.0427146,-0.00115755,0.0152423,0.0496895,-0.0687524,0.423659,-0.125428
1413393225305760512,-1.90241,-0.513917,0.775252,0.580056,-0.150418,-0.797193,-0.0734333,-0.247104,-0.0770329,-0.0719655,-0.0011283,0.0152172,0.0497251,-0.0695149,0.428046,-0.125676
1413393225355760384,-1.91449,-0.517115,0.772665,0.579951,-0.1531,-0.796538,-0.0757918,-0.229388,-0.055068,-0.0525764,-0.00111541,0.0152817,0.0498121,-0.0727924,0.429024,-0.123968
1413393225405760512,-1.92608,-0.519945,0.770241,0.579054,-0.158823,-0.795965,-0.0768911,-0.233641,-0.0390947,-0.0309603,-0.00114296,0.0152777,0.049894,-0.0761364,0.428389,-0.12309
1413393225455760384,-1.93818,-0.521658,0.769391,0.578026,-0.165735,-0.795132,-0.0786339,-0.245569,-0.0232093,-0.0148066,-0.00116306,0.0152954,0.0499449,-0.0789645,0.429294,-0.122978
1413393225505760512,-1.94998,-0.522191,0.769792,0.577891,-0.174869,-0.793065,-0.080692,-0.232139,0.0179236,0.000850146,-0.00120515,0.0153304,0.0499937,-0.0833796,0.428268,-0.123192
1413393225555760384,-1.96165,-0.521031,0.770325,0.575974,-0.185019,-0.791807,-0.0840543,-0.232789,0.046846,0.0180503,-0.00123202,0.0154056,0.0500473,-0.0865289,0.43037,-0.122821
1413393225605760512,-1.97395,-0.517945,0.771945,0.574656,-0.196126,-0.789614,-0.088407,-0.259163,0.0849573,0.0584614,-0.00122659,0.0154395,0.0501319,-0.0879223,0.434668,-0.122075
1413393225655760384,-1.98635,-0.512726,0.774795,0.574059,-0.208295,-0.786329,-0.0935771,-0.252278,0.116139,0.0771428,-0.00123418,0.015463,0.0501875,-0.0880778,0.4389,-0.120323
1413393225705760512,-1.99876,-0.506723,0.77886,0.572461,-0.219953,-0.783337,-0.101447,-0.24988,0.137491,0.105692,-0.00122532,0.0155042,0.0502334,-0.0866342,0.444317,-0.11634
1413393225755760384,-2.01127,-0.499488,0.784475,0.570656,-0.230776,-0.780168,-0.1115,-0.259784,0.149144,0.111631,-0.00122828,0.0155145,0.0502999,-0.0848501,0.448907,-0.11273
1413393225805760512,-2.02376,-0.491346,0.790116,0.568902,-0.240636,-0.776718,-0.123103,-0.242286,0.185948,0.134256,-0.00121291,0.0155432,0.0503574,-0.0835854,0.451272,-0.107349
1413393225855760384,-2.03572,-0.482187,0.795475,0.565821,-0.249987,-0.773577,-0.137595,-0.237622,0.193515,0.0727943,-0.00121922,0.0155424,0.0504085,-0.0816995,0.454415,-0.101765
1413393225905760512,-2.04801,-0.472652,0.796446,0.563849,-0.25977,-0.769396,-0.150413,-0.242422,0.18937,-0.0202147,-0.00119926,0.0155274,0.0504855,-0.0786767,0.458572,-0.096209
1413393225955760384,-2.06046,-0.463341,0.792529,0.5603,-0.268702,-0.766044,-0.16444,-0.251035,0.191636,-0.124548,-0.0011963,0.0155477,0.0505305,-0.0766304,0.460242,-0.0884796
1413393226005760512,-2.07299,-0.453977,0.784736,0.557823,-0.277571,-0.761765,-0.177488,-0.247623,0.184369,-0.197241,-0.00122308,0.015549,0.0505862,-0.0732812,0.462273,-0.081341
1413393226055760384,-2.08555,-0.444931,0.774439,0.555523,-0.287811,-0.757048,-0.18825,-0.247078,0.176408,-0.215183,-0.00121174,0.0155742,0.0506712,-0.0703575,0.4658,-0.0740328
1413393226105760512,-2.09787,-0.436764,0.76385,0.553479,-0.298787,-0.752448,-0.195475,-0.244654,0.152958,-0.21334,-0.00120287,0.0156012,0.0507192,-0.0673872,0.46974,-0.0669898
1413393226155760384,-2.11008,-0.429006,0.753779,0.552079,-0.309563,-0.747558,-0.201337,-0.237576,0.153625,-0.183085,-0.00122884,0.0156162,0.0507804,-0.0655962,0.472551,-0.05955
1413393226205760512,-2.12166,-0.421509,0.745599,0.550126,-0.319602,-0.743296,-0.206705,-0.226394,0.133691,-0.125262,-0.00123475,0.0156667,0.0508473,-0.0644391,0.477902,-0.0525354
1413393226255760384,-2.13336,-0.414425,0.741108,0.548225,-0.329012,-0.739834,-0.209396,-0.231658,0.139952,-0.0589526,-0.00126267,0.0157286,0.0509184,-0.0638285,0.479617,-0.0450806
1413393226305760512,-2.14434,-0.407184,0.739254,0.546701,-0.337016,-0.736646,-0.211875,-0.20728,0.134667,-0.044077,-0.00127483,0.0157794,0.0509921,-0.0632537,0.485742,-0.0395134
1413393226355760384,-2.1549,-0.400301,0.738973,0.54426,-0.345276,-0.734783,-0.21133,-0.215114,0.127271,0.000245852,-0.00132372,0.0157962,0.0510325,-0.0614079,0.491252,-0.0376584
1413393226405760512,-2.16529,-0.393782,0.739147,0.540325,-0.351406,-0.734638,-0.211826,-0.212049,0.123804,-0.00199459,-0.00130501,0.0158287,0.0511111,-0.0589258,0.496101,-0.0308468
1413393226455760384,-2.1762,-0.387571,0.738409,0.535902,-0.357319,-0.735251,-0.211041,-0.225862,0.124239,-0.0214518,-0.00132746,0.0158769,0.0511783,-0.0565008,0.49868,-0.0241881
1413393226505760512,-2.18811,-0.381004,0.736038,0.532097,-0.362203,-0.735904,-0.210065,-0.247062,0.131648,-0.0671037,-0.00134356,0.0159207,0.0512486,-0.0528955,0.50032,-0.0185461
1413393226555760384,-2.20056,-0.374221,0.731841,0.529601,-0.366286,-0.73604,-0.208816,-0.251443,0.139862,-0.103622,-0.00136004,0.0159815,0.0513424,-0.0506044,0.500731,-0.0160623
1413393226605760512,-2.21306,-0.366799,0.725459,0.526973,-0.369448,-0.736577,-0.207995,-0.247282,0.158766,-0.133987,-0.00142225,0.0160227,0.0514308,-0.0471986,0.500838,-0.0133426
1413393226655760384,-2.22559,-0.358036,0.718806,0.525299,-0.371038,-0.736762,-0.208742,-0.255826,0.180567,-0.120578,-0.00136018,0.015991,0.0514588,-0.0412115,0.505988,-0.00840604
1413393226705760512,-2.23865,-0.348302,0.712837,0.524993,-0.368463,-0.73675,-0.214049,-0.268863,0.204022,-0.119658,-0.00143226,0.0160213,0.0515414,-0.038369,0.504193,-0.00824297
1413393226755760384,-2.25212,-0.33747,0.707438,0.525772,-0.365459,-0.735939,-0.219994,-0.266198,0.228779,-0.103729,-0.00151977,0.0161135,0.0515632,-0.0374328,0.502952,-0.00405801
1413393226805760512,-2.26605,-0.326187,0.702164,0.525535,-0.362261,-0.73614,-0.225119,-0.292924,0.223876,-0.0897343,-0.00153172,0.016132,0.0516286,-0.0344817,0.503615,-0.000714323
1413393226855760384,-2.28068,-0.314733,0.69715,0.525606,-0.359339,-0.736481,-0.228495,-0.298771,0.228374,-0.1121,-0.00154392,0.0161559,0.0517016,-0.032203,0.504716,0.00326444
1413393226905760512,-2.29578,-0.303093,0.692591,0.524789,-0.356398,-0.737328,-0.232215,-0.306696,0.229391,-0.0967923,-0.00154974,0.0161774,0.0517379,-0.030933,0.507141,0.00699245
1413393226955760384,-2.3117,-0.291803,0.688229,0.52453,-0.354713,-0.737827,-0.23379,-0.32966,0.225033,-0.0780237,-0.00155172,0.0161982,0.0517905,-0.0294331,0.507382,0.0100309
1413393227005760512,-2.3284,-0.280434,0.684203,0.524466,-0.352964,-0.738458,-0.234589,-0.339256,0.225986,-0.0746524,-0.00157586,0.0162579,0.0518536,-0.0291071,0.507282,0.0131798
1413393227055760384,-2.34575,-0.26912,0.680708,0.525344,-0.352478,-0.738116,-0.23443,-0.356459,0.224816,-0.064705,-0.00155784,0.0163265,0.0519403,-0.0285988,0.509671,0.0158489
1413393227105760512,-2.36394,-0.258154,0.677807,0.527123,-0.352052,-0.737169,-0.234055,-0.370205,0.212665,-0.0652854,-0.00149178,0.0163502,0.051975,-0.0275132,0.512331,0.0204562
1413393227155760384,-2.38278,-0.24772,0.675226,0.52913,-0.352851,-0.735996,-0.232011,-0.380864,0.208962,-0.0490882,-0.00154406,0.0164142,0.0520137,-0.0279837,0.510504,0.0232198
1413393227205760512,-2.40207,-0.237314,0.673282,0.531167,-0.353576,-0.734853,-0.229862,-0.386126,0.208455,-0.0275512,-0.00154252,0.0164617,0.0520727,-0.0272678,0.509748,0.0262163
1413393227255760384,-2.42149,-0.226955,0.672172,0.53394,-0.355724,-0.732915,-0.226285,-0.384954,0.209014,-0.0017389,-0.00152309,0.0165211,0.0521448,-0.0265369,0.509206,0.02898
1413393227305760512,-2.4407,-0.216819,0.671433,0.534242,-0.357116,-0.732577,-0.224465,-0.383027,0.203412,-0.0102326,-0.00155113,0.0165692,0.0522156,-0.0262386,0.507224,0.0310428
1413393227355760384,-2.45979,-0.206603,0.671461,0.535304,-0.357992,-0.731664,-0.223515,-0.379995,0.200539,0.000647352,-0.00147125,0.0165723,0.0522874,-0.023843,0.510934,0.0338547
1413393227405760512,-2.4787,-0.196377,0.671328,0.534985,-0.359432,-0.731683,-0.221902,-0.3728,0.209437,0.00490694,-0.00154652,0.0166437,0.0523263,-0.0245804,0.5075,0.0364397
1413393227455760384,-2.49735,-0.185785,0.671383,0.535151,-0.361028,-0.731244,-0.220351,-0.371112,0.214614,0.00268927,-0.0015605,0.0166767,0.0523547,-0.023775,0.507084,0.0404653
1413393227505760512,-2.51593,-0.175034,0.671594,0.535286,-0.361847,-0.730881,-0.219885,-0.368356,0.214968,-0.00281066,-0.00154081,0.0167155,0.0524281,-0.0227935,0.506761,0.0443808
1413393227555760384,-2.53406,-0.163937,0.671921,0.536266,-0.363728,-0.729195,-0.21999,-0.357105,0.22504,0.00100825,-0.00154887,0.0166348,0.0524706,-0.0206759,0.505196,0.0482666
1413393227605760512,-2.55168,-0.152595,0.672466,0.536773,-0.366789,-0.727115,-0.220556,-0.346324,0.230429,0.00461347,-0.00155113,0.0166054,0.0525417,-0.0189992,0.504739,0.0521643
1413393227655760384,-2.56862,-0.140683,0.67285,0.53611,-0.370168,-0.725323,-0.222415,-0.331016,0.247068,0.0145437,-0.00153216,0.0166029,0.0525904,-0.0176677,0.504558,0.0563525
1413393227705760512,-2.58473,-0.128004,0.673114,0.534442,-0.374947,-0.723362,-0.224798,-0.31126,0.261987,0.0147497,-0.00153799,0.0165825,0.052658,-0.016026,0.504025,0.0612546
1413393227755760384,-2.59987,-0.114894,0.673392,0.533032,-0.380994,-0.720386,-0.227517,-0.290067,0.270704,0.00922175,-0.00154245,0.0165746,0.052735,-0.0135213,0.503613,0.065453
1413393227805760512,-2.61378,-0.101265,0.674042,0.530461,-0.386421,-0.717959,-0.232003,-0.269892,0.275192,-0.00138496,-0.00151144,0.0165615,0.0527514,-0.0114288,0.504327,0.0682334
1413393227855760384,-2.62656,-0.0871578,0.674335,0.529088,-0.394375,-0.713679,-0.23494,-0.246697,0.292459,0.000850465,-0.00146908,0.0164949,0.0528197,-0.00763936,0.506313,0.0732565
1413393227905760512,-2.6386,-0.0724832,0.67467,0.526647,-0.401827,-0.709814,-0.239462,-0.239554,0.300303,0.0147777,-0.00142604,0.0165392,0.0528514,-0.00549835,0.507891,0.077363
1413393227955760384,-2.64991,-0.0572889,0.675134,0.524986,-0.41,-0.704658,-0.244434,-0.220371,0.306298,0.0101585,-0.00136441,0.0166027,0.052896,-0.00349913,0.510059,0.082435
1413393228005760512,-2.66031,-0.0415908,0.674876,0.521938,-0.419381,-0.69953,-0.249716,-0.19938,0.319677,-0.0112894,-0.00135936,0.0165819,0.052954,-0.000261048,0.510826,0.0886568
1413393228055760384,-2.67022,-0.0255402,0.674269,0.51805,-0.428002,-0.69449,-0.257143,-0.204276,0.324033,-0.0243017,-0.00137374,0.0166038,0.0529923,0.00160284,0.510471,0.0950423
1413393228105760512,-2.67997,-0.00904305,0.67298,0.514353,-0.437383,-0.689,-0.263472,-0.194174,0.333557,-0.00632434,-0.00135442,0.0166063,0.0530349,0.00389079,0.510255,0.101446
1413393228155760384,-2.68925,0.00770811,0.671707,0.508863,-0.446494,-0.684367,-0.270822,-0.178163,0.334819,-0.0343766,-0.00128862,0.0166518,0.0530896,0.0054434,0.509348,0.10639
1413393228205760512,-2.69815,0.0246602,0.669973,0.503653,-0.4557,-0.679773,-0.276731,-0.177619,0.336766,-0.027456,-0.00113977,0.0166463,0.0530801,0.00786241,0.510901,0.111152
1413393228255760384,-2.7066,0.0417482,0.668481,-0.498434,0.462372,0.676276,0.283594,-0.164301,0.340952,-0.0226486,-0.00107072,0.0167304,0.0531531,0.00789682,0.510029,0.117865
1413393228305760512,-2.71456,0.0592613,0.667072,-0.49386,0.468465,0.67276,0.28989,-0.155663,0.345739,-0.0191796,-0.0010702,0.0167606,0.0531977,0.00992824,0.509309,0.126265
1413393228355760384,-2.72208,0.0770793,0.666193,-0.489687,0.47385,0.66945,0.295822,-0.151045,0.354462,-0.00865885,-0.0010743,0.0167238,0.0532523,0.0128878,0.508576,0.135546
1413393228405760512,-2.72913,0.0953062,0.665722,-0.485544,0.479525,0.665726,0.301848,-0.131414,0.364741,-0.0028888,-0.00101731,0.0167606,0.053325,0.0148474,0.508707,0.142624
1413393228455760384,-2.73571,0.113773,0.665323,-0.481931,0.485815,0.661191,0.307493,-0.124388,0.375145,0.00750098,-0.00102293,0.0167922,0.0533381,0.015874,0.506956,0.150249
1413393228505760512,-2.74214,0.132589,0.665817,-0.479766,0.491014,0.656042,0.313591,-0.131533,0.374926,0.0143615,-0.000956124,0.0168948,0.05338,0.0168924,0.507083,0.155724
1413393228555760384,-2.74817,0.151361,0.666518,-0.477248,0.496877,0.651026,0.31861,-0.108139,0.378499,0.0163452,-0.000956436,0.016861,0.0533955,0.0202098,0.505809,0.161201
1413393228605760512,-2.75378,0.17025,0.667257,-0.473255,0.503001,0.647072,0.322981,-0.109048,0.378256,0.0274227,-0.000915776,0.0169178,0.0534556,0.0230213,0.506109,0.16709
1413393228655760384,-2.75949,0.188952,0.66865,-0.470615,0.50836,0.643435,0.325705,-0.116122,0.374825,0.0376762,-0.000939849,0.016964,0.0534627,0.0259359,0.504352,0.172977
1413393228705760512,-2.76503,0.207612,0.670473,-0.467094,0.51258,0.641295,0.32837,-0.10197,0.380475,0.0314156,-0.000959595,0.0169293,0.0534967,0.0306731,0.502536,0.179064
1413393228755760384,-2.77056,0.226614,0.672277,-0.464266,0.516413,0.639449,0.329971,-0.111044,0.381248,0.0375357,-0.001017,0.0169075,0.0535568,0.0343558,0.500137,0.184666
1413393228805760512,-2.77622,0.245888,0.673594,-0.461686,0.520876,0.638591,0.328232,-0.115642,0.385797,0.0223327,-0.00106164,0.0168923,0.0535993,0.0381495,0.499222,0.190451
1413393228855760384,-2.78166,0.265169,0.674393,-0.458984,0.524898,0.638083,0.326599,-0.102306,0.379841,0.0119718,-0.000969034,0.0169274,0.0536297,0.0416741,0.502433,0.195142
1413393228905760512,-2.78672,0.284147,0.67475,-0.45564,0.528851,0.638787,0.323511,-0.0960619,0.385878,0.0138734,-0.000955029,0.01697,0.0536876,0.0442165,0.503942,0.199809
1413393228955760384,-2.79146,0.303721,0.675304,-0.454323,0.53081,0.638717,0.322292,-0.0951268,0.397787,0.000271899,-0.000957971,0.0169736,0.0537029,0.0467996,0.503746,0.20261
1413393229005760512,-2.7959,0.324288,0.675342,-0.452269,0.530455,0.639631,0.323948,-0.0781432,0.425215,0.00422042,-0.000943811,0.016995,0.053762,0.048627,0.504555,0.206273
1413393229055760384,-2.80019,0.346153,0.67505,-0.449613,0.527882,0.641546,0.328036,-0.0893458,0.452157,-0.0215706,-0.000995417,0.0169753,0.0538125,0.0516073,0.504092,0.209816
1413393229105760512,-2.80471,0.369034,0.673442,-0.448793,0.52464,0.642585,0.332299,-0.0925322,0.465223,-0.0472525,-0.000999253,0.0170167,0.0538603,0.053243,0.505319,0.213257
1413393229155760384,-2.80951,0.392404,0.670942,-0.447574,0.521596,0.643911,0.336147,-0.0974327,0.46667,-0.037083,-0.000985661,0.0170828,0.0538991,0.0549087,0.507052,0.217374
1413393229205760512,-2.8151,0.415726,0.668345,-0.446736,0.518692,0.645174,0.339319,-0.12772,0.466817,-0.0635476,-0.000996808,0.0171327,0.0539651,0.0577813,0.508696,0.221336
1413393229255760384,-2.82194,0.439214,0.664957,-0.446123,0.515716,0.646607,0.341922,-0.149473,0.464651,-0.0770452,-0.00096076,0.0171534,0.0540027,0.0610615,0.51085,0.225028
1413393229305760512,-2.82982,0.462474,0.660827,-0.446413,0.5134,0.647081,0.344126,-0.164511,0.461415,-0.0876304,-0.000938332,0.0172005,0.0540501,0.0644873,0.512212,0.228522
1413393229355760384,-2.83916,0.485542,0.656086,-0.447406,0.511644,0.647172,0.345279,-0.205657,0.464436,-0.100506,-0.000942982,0.017232,0.0541022,0.0679557,0.512811,0.231902
1413393229405760512,-2.84984,0.508692,0.650461,-0.449652,0.510838,0.646459,0.344891,-0.229648,0.461748,-0.116574,-0.00091659,0.0172033,0.0541596,0.0729799,0.512536,0.235364
1413393229455760384,-2.86186,0.531642,0.644656,-0.453551,0.511543,0.644248,0.342871,-0.244174,0.454387,-0.115799,-0.000928718,0.0171943,0.0541908,0.0771447,0.511445,0.238206
1413393229505760512,-2.87473,0.554269,0.638923,-0.457831,0.51311,0.641931,0.339166,-0.270167,0.445592,-0.119981,-0.000925047,0.0172026,0.0542224,0.0810853,0.509969,0.240499
1413393229555760384,-2.88839,0.576434,0.633373,-0.460383,0.515255,0.640547,0.335052,-0.274072,0.444368,-0.110016,-0.000911832,0.0172191,0.0542732,0.0840892,0.508194,0.242523
1413393229605760512,-2.90178,0.598625,0.627745,-0.462574,0.518206,0.639224,0.329971,-0.258646,0.447811,-0.10505,-0.000896984,0.0172307,0.0543275,0.0877221,0.5069,0.24533
1413393229655760384,-2.91502,0.621007,0.622401,-0.463152,0.521076,0.639124,0.324795,-0.266383,0.445764,-0.106607,-0.000881863,0.0172319,0.0543647,0.0916551,0.505763,0.24858
1413393229705760512,-2.92783,0.643655,0.617484,-0.461901,0.522848,0.640337,0.321319,-0.249094,0.457249,-0.0995426,-0.000877631,0.0171999,0.0544336,0.0961548,0.504277,0.252041
1413393229755760384,-2.94026,0.666748,0.613082,-0.460517,0.524342,0.641644,0.318251,-0.248211,0.462917,-0.0856375,-0.000889073,0.0171494,0.0544827,0.0993856,0.502126,0.255051
1413393229805760512,-2.9525,0.690282,0.60893,-0.457955,0.526171,0.643605,0.314951,-0.238995,0.478944,-0.0744197,-0.000880601,0.0170907,0.0545245,0.102473,0.500281,0.257723
1413393229855760384,-2.96407,0.714588,0.605318,-0.454801,0.527432,0.646192,0.312103,-0.224934,0.492672,-0.057808,-0.000840906,0.0170646,0.0545756,0.104589,0.498689,0.259885
1413393229905760512,-2.97519,0.739434,0.602613,-0.452236,0.528465,0.648226,0.309856,-0.219552,0.502399,-0.0439186,-0.000878377,0.0170679,0.0546227,0.104363,0.495622,0.262102
1413393229955760384,-2.98603,0.765377,0.601019,-0.450521,0.527974,0.649953,0.309572,-0.217544,0.53321,-0.0344744,-0.000884651,0.0170484,0.054658,0.104458,0.492947,0.264007
1413393230005760512,-2.99666,0.792615,0.600386,-0.448659,0.525999,0.651778,0.311795,-0.20599,0.56257,0.0108912,-0.000945677,0.0170649,0.0547206,0.103655,0.488731,0.265315
1413393230055760384,-3.0073,0.821545,0.600683,-0.447806,0.521286,0.653453,0.31738,-0.221808,0.589377,0.0109604,-0.000945738,0.0170238,0.0547403,0.104277,0.486423,0.267861
1413393230105760512,-3.01837,0.851489,0.600992,-0.447359,0.516893,0.654707,0.322569,-0.223271,0.60824,-0.000983795,-0.00100201,0.0170207,0.0547993,0.103292,0.482114,0.268934
1413393230155760384,-3.0299,0.882395,0.600793,-0.447427,0.513419,0.655392,0.326607,-0.237422,0.623871,-0.00459424,-0.00100981,0.016994,0.0548589,0.103202,0.479254,0.271217
1413393230205760512,-3.04218,0.913741,0.599809,-0.447227,0.510319,0.65642,0.329659,-0.260652,0.625793,-0.0216383,-0.00105312,0.0170082,0.0548764,0.101271,0.475462,0.272335
1413393230255760384,-3.05551,0.945269,0.598608,-0.448616,0.507952,0.656162,0.331934,-0.27506,0.630725,-0.0374928,-0.00109749,0.0169962,0.0549227,0.101364,0.472088,0.274302
1413393230305760512,-3.06972,0.976708,0.596769,-0.450938,0.506243,0.655337,0.333025,-0.291476,0.630483,-0.0399481,-0.00111772,0.01699,0.0549871,0.101769,0.468702,0.275103
1413393230355760384,-3.08457,1.00803,0.593735,-0.452847,0.507133,0.6544,0.330919,-0.302281,0.622312,-0.0722211,-0.00112764,0.017017,0.0550211,0.102223,0.465827,0.276678
1413393230405760512,-3.09993,1.03944,0.59042,-0.455579,0.507915,0.652767,0.32919,-0.312333,0.628769,-0.075155,-0.00114916,0.0170252,0.0550667,0.102976,0.462696,0.277724
1413393230455760384,-3.11563,1.07124,0.586695,-0.45676,0.509888,0.651267,0.327471,-0.314443,0.645957,-0.071806,-0.00114888,0.0170443,0.055131,0.10385,0.459458,0.279155
1413393230505760512,-3.13133,1.10367,0.582935,-0.457791,0.513749,0.648378,0.325721,-0.314973,0.654512,-0.052987,-0.00116197,0.0170622,0.0552012,0.104969,0.456134,0.28138
1413393230555760384,-3.1467,1.13685,0.579459,-0.457609,0.518905,0.644728,0.325051,-0.303076,0.66286,-0.0767736,-0.00116679,0.0170991,0.0552301,0.106029,0.45336,0.284528
1413393230605760512,-3.16134,1.17045,0.57618,-0.456895,0.525088,0.640066,0.325339,-0.288142,0.680369,-0.068322,-0.00115077,0.0171383,0.0552649,0.107262,0.450622,0.288387
1413393230655760384,-3.17543,1.20501,0.573604,-0.45517,0.532623,0.634679,0.326061,-0.280539,0.684694,-0.0465255,-0.00113442,0.0171564,0.0552958,0.108278,0.447627,0.292328
1413393230705760512,-3.1889,1.24009,0.572095,-0.4524,0.539337,0.629475,0.328955,-0.262545,0.707932,0.00341998,-0.00113626,0.0171865,0.0553689,0.10907,0.444427,0.296229
1413393230755760384,-3.20126,1.2751,0.572875,-0.44969,0.547116,0.623092,0.331963,-0.236744,0.703897,0.0144865,-0.00111152,0.0172209,0.0553684,0.108517,0.440902,0.299092
1413393230805760512,-3.21251,1.30978,0.574099,-0.446549,0.554744,0.616582,0.335678,-0.223282,0.707976,0.028707,-0.00109273,0.0172715,0.0554059,0.108447,0.43713,0.301353
1413393230855760384,-3.22261,1.3452,0.575463,-0.441808,0.562198,0.610438,0.340742,-0.189968,0.721743,0.0374919,-0.00104748,0.0173452,0.0555249,0.108298,0.434457,0.304241
1413393230905760512,-3.23156,1.38126,0.577604,-0.436083,0.56923,0.604249,0.347407,-0.174615,0.73282,0.0638673,-0.00102109,0.0173807,0.055574,0.107698,0.430885,0.306472
1413393230955760384,-3.23947,1.41793,0.580553,-0.428642,0.574621,0.599592,0.355763,-0.153791,0.739263,0.0752409,-0.00102159,0.0174407,0.0556407,0.106698,0.427343,0.308679
1413393231005760512,-3.2465,1.45508,0.583891,-0.420602,0.578709,0.595887,0.364841,-0.134389,0.742161,0.0873398,-0.00101043,0.0174623,0.0556108,0.105245,0.423981,0.310624
1413393231055760384,-3.253,1.49246,0.587743,-0.412448,0.581453,0.593435,0.373676,-0.132496,0.754214,0.0766687,-0.000955612,0.017533,0.0556452,0.103989,0.421921,0.312666
1413393231105760512,-3.26,1.53017,0.592054,-0.406375,0.58348,0.590634,0.381526,-0.150724,0.755093,0.0765613,-0.000941408,0.0175329,0.0556798,0.103214,0.419303,0.315418
1413393231155760384,-3.26764,1.56817,0.596521,-0.401096,0.585171,0.588398,0.387924,-0.160538,0.7622,0.0918731,-0.00094461,0.0175501,0.0556534,0.101704,0.416872,0.317929
1413393231205760512,-3.27598,1.60632,0.600712,-0.397449,0.587578,0.585918,0.391775,-0.178736,0.773667,0.0939457,-0.00127817,0.0174887,0.055698,0.0994887,0.410315,0.317439
1413393231255760384,-3.28558,1.64508,0.605418,-0.394066,0.589056,0.58421,0.395504,-0.217743,0.777507,0.0926691,-0.00148511,0.0174737,0.0557103,0.0972447,0.40582,0.317386
1413393231305760512,-3.29635,1.68355,0.609568,-0.39357,0.591246,0.581362,0.396924,-0.232493,0.771847,0.0523647,-0.00165007,0.0175945,0.0556989,0.0947484,0.402804,0.319202
1413393231355760384,-3.30756,1.7218,0.611035,-0.394451,0.593788,0.578276,0.396764,-0.247733,0.774457,0.00879927,-0.00168754,0.0176726,0.055685,0.0941161,0.401722,0.320057
1413393231405760512,-3.31956,1.76079,0.610088,-0.397102,0.596329,0.574518,0.395765,-0.266858,0.783114,-0.0229993,-0.00174914,0.017695,0.0554542,0.0941159,0.400431,0.321427
1413393231455760384,-3.3325,1.79996,0.607345,-0.401884,0.598259,0.569469,0.395323,-0.263462,0.785435,-0.0502796,-0.00181623,0.0177547,0.0554198,0.0947657,0.398636,0.323263
1413393231505760512,-3.34595,1.8391,0.603592,-0.408507,0.599029,0.563449,0.395996,-0.274289,0.778071,-0.0898373,-0.00178888,0.0177634,0.0553588,0.0960315,0.396925,0.325426
1413393231555760384,-3.35961,1.87812,0.59813,-0.416651,0.597785,0.557113,0.398346,-0.279426,0.772826,-0.135888,-0.00183864,0.0178383,0.0554242,0.0977746,0.395178,0.328675
1413393231605760512,-3.37289,1.91677,0.591473,-0.424098,0.596692,0.551007,0.400613,-0.256589,0.749386,-0.166277,-0.00157617,0.0179171,0.0555478,0.101132,0.396474,0.336018
1413393231655760384,-3.38571,1.95371,0.583053,-0.42881,0.596487,0.546201,0.402479,-0.254362,0.718298,-0.18235,-0.00152647,0.017941,0.0556382,0.103511,0.394594,0.340245
1413393231705760512,-3.39761,1.98891,0.573885,-0.429827,0.597066,0.543588,0.40407,-0.22854,0.684013,-0.18449,-0.00148665,0.0180078,0.0557407,0.105282,0.392688,0.343882
1413393231755760384,-3.40833,2.02223,0.564534,-0.427995,0.599956,0.541435,0.404626,-0.196421,0.648588,-0.174496,-0.00145551,0.0179518,0.0558122,0.107828,0.390087,0.347478
1413393231805760512,-3.41815,2.05363,0.556041,-0.42538,0.604263,0.539337,0.403774,-0.191852,0.606834,-0.168692,-0.00144014,0.0179221,0.0557796,0.10766,0.386438,0.349331
1413393231855760384,-3.42681,2.08308,0.54806,-0.423193,0.610143,0.536365,0.40118,-0.156293,0.572808,-0.160292,-0.00142744,0.0180339,0.0557567,0.105226,0.38343,0.349986
1413393231905760512,-3.43389,2.11122,0.540236,-0.418903,0.618036,0.53314,0.397886,-0.117335,0.549407,-0.140223,-0.00138698,0.0180122,0.0557463,0.10285,0.379836,0.34974
1413393231955760384,-3.43908,2.13811,0.533232,-0.415443,0.625481,0.528856,0.395591,-0.0914884,0.538381,-0.131123,-0.00137697,0.018198,0.0557954,0.0985679,0.377735,0.348999
1413393232005760512,-3.44246,2.16441,0.527256,-0.411465,0.632749,0.523966,0.394697,-0.0460573,0.50973,-0.128907,-0.00138888,0.0182712,0.0559474,0.0977053,0.374924,0.353086
1413393232055760384,-3.44375,2.19037,0.52167,-0.405275,0.638936,0.520042,0.39632,-0.00344353,0.508441,-0.0972421,-0.00139561,0.0183088,0.0560735,0.0995672,0.371815,0.360414
1413393232105760512,-3.44328,2.2157,0.517757,-0.398781,0.64444,0.515847,0.399465,0.0259175,0.486276,-0.077143,-0.00136198,0.0183545,0.0562373,0.0997389,0.368517,0.367299
1413393232155760384,-3.44111,2.24009,0.513736,-0.392134,0.649923,0.51084,0.403576,0.0642599,0.471012,-0.0840467,-0.00131119,0.0184351,0.0564031,0.0984003,0.365461,0.372127
1413393232205760512,-3.43739,2.26403,0.509984,-0.384933,0.653422,0.505966,0.410933,0.0941477,0.470817,-0.0788764,-0.00128523,0.0184517,0.0564647,0.0969317,0.360928,0.376732
1413393232255760384,-3.43234,2.28738,0.505168,-0.378489,0.657546,0.500145,0.417414,0.116138,0.463318,-0.111474,-0.00127757,0.0183931,0.0563961,0.0939849,0.356535,0.377883
1413393232305760512,-3.42581,2.31041,0.498948,-0.372377,0.661842,0.493812,0.423616,0.148243,0.454597,-0.141345,-0.00129734,0.0183976,0.0563197,0.0918419,0.352928,0.379677
1413393232355760384,-3.41806,2.3332,0.491311,-0.367364,0.667497,0.486045,0.428079,0.165953,0.45222,-0.173338,-0.00131599,0.0183778,0.0562974,0.0892731,0.349432,0.381726
1413393232405760512,-3.40913,2.35564,0.482197,-0.361359,0.673395,0.479544,0.431274,0.192702,0.44704,-0.185144,-0.00135132,0.0182843,0.0562153,0.0883423,0.346018,0.383247
1413393232455760384,-3.39902,2.37775,0.471751,-0.355443,0.67898,0.472787,0.434878,0.213503,0.437105,-0.219439,-0.00137108,0.0182491,0.0562029,0.086564,0.343543,0.384978
1413393232505760512,-3.38809,2.39981,0.459932,-0.350198,0.684779,0.465856,0.437513,0.229523,0.440653,-0.247642,-0.00141018,0.0181956,0.0562233,0.0854723,0.340427,0.388364
1413393232555760384,-3.37621,2.42196,0.447317,-0.34584,0.689266,0.460036,0.440084,0.246522,0.445301,-0.2772,-0.00142064,0.018165,0.0562283,0.0840807,0.338146,0.389535
1413393232605760512,-3.36363,2.4443,0.432931,-0.342133,0.692625,0.455644,0.442272,0.255272,0.44156,-0.301667,-0.00142732,0.0181797,0.0562754,0.0838235,0.33675,0.394273
1413393232655760384,-3.35026,2.46637,0.418595,-0.339808,0.695879,0.450793,0.443925,0.28379,0.440092,-0.276329,-0.00142667,0.0181976,0.0563283,0.0837552,0.335286,0.397925
1413393232705760512,-3.33607,2.48856,0.405308,-0.337809,0.697946,0.447159,0.445875,0.289063,0.445345,-0.264579,-0.00141728,0.0181913,0.0563889,0.0843178,0.332305,0.401796
1413393232755760384,-3.32106,2.51063,0.392738,-0.334879,0.699063,0.445578,0.447914,0.309843,0.440457,-0.238712,-0.00140436,0.0181852,0.0564458,0.0842559,0.329292,0.404523
1413393232805760512,-3.30496,2.53259,0.380808,-0.332599,0.700431,0.443986,0.449056,0.33973,0.448662,-0.233098,-0.00139951,0.0181852,0.0564951,0.0847084,0.327695,0.405513
1413393232855760384,-3.28782,2.55548,0.369811,-0.331485,0.70109,0.442437,0.450377,0.346818,0.460901,-0.222857,-0.00139919,0.0181989,0.0565327,0.0858849,0.325301,0.409041
1413393232905760512,-3.26989,2.57812,0.358946,-0.329177,0.701937,0.442758,0.450435,0.368506,0.45609,-0.211107,-0.00139531,0.0182167,0.0565538,0.086417,0.324165,0.411025
1413393232955760384,-3.25103,2.60091,0.349826,-0.325446,0.701171,0.44444,0.452678,0.38954,0.456906,-0.166031,-0.00139889,0.0182055,0.0565787,0.0869866,0.321671,0.411032
1413393233005760512,-3.23148,2.62439,0.342333,-0.322185,0.700794,0.446329,0.453735,0.398074,0.472752,-0.134059,-0.00139249,0.0181946,0.0566149,0.0878933,0.317249,0.414993
1413393233055760384,-3.21142,2.64842,0.337051,-0.318877,0.699839,0.448933,0.454975,0.408126,0.483222,-0.0950989,-0.00139398,0.018173,0.0566787,0.0898071,0.312177,0.418938
1413393233105760512,-3.1908,2.67219,0.332901,-0.316221,0.699589,0.451008,0.455161,0.423008,0.47744,-0.0625048,-0.00140116,0.0181368,0.05671,0.0887717,0.309447,0.414895
1413393233155760384,-3.16968,2.69659,0.330852,-0.314991,0.698932,0.452301,0.455739,0.423574,0.492597,-0.0203929,-0.00140478,0.0181464,0.0567378,0.0886432,0.307408,0.416618
1413393233205760512,-3.14803,2.72169,0.33105,-0.314317,0.697992,0.452717,0.457231,0.432034,0.509819,0.0312704,-0.00140092,0.0181636,0.0567673,0.0899323,0.307045,0.420495
1413393233255760384,-3.12582,2.74705,0.333988,-0.313045,0.696005,0.452351,0.461475,0.450056,0.501264,0.0715357,-0.00139604,0.018182,0.0568103,0.0903992,0.305748,0.422706
1413393233305760512,-3.10346,2.77239,0.33873,-0.312464,0.694807,0.44992,0.466029,0.446518,0.514947,0.115814,-0.00139911,0.0181956,0.0568336,0.0894807,0.303712,0.423114
1413393233355760384,-3.08111,2.798,0.34555,-0.312027,0.693388,0.446297,0.471881,0.454347,0.513557,0.169398,-0.00141712,0.0181917,0.056857,0.0900951,0.300139,0.424851
1413393233405760512,-3.0586,2.82322,0.354065,-0.311717,0.692872,0.441028,0.477762,0.451295,0.49644,0.179767,-0.00141116,0.0182079,0.0568998,0.0906821,0.297242,0.427016
1413393233455760384,-3.03649,2.84806,0.364208,-0.312718,0.694556,0.432717,0.48224,0.443542,0.492692,0.228706,-0.00140337,0.0182205,0.0569514,0.0914435,0.29381,0.42963
1413393233505760512,-3.01459,2.87215,0.37724,-0.309322,0.696064,0.427342,0.487026,0.436114,0.462197,0.272673,-0.00140093,0.0182318,0.0569918,0.0920739,0.29011,0.432103
1413393233555760384,-2.99285,2.8947,0.391395,-0.306145,0.699809,0.420561,0.489563,0.434781,0.438727,0.277841,-0.00139722,0.0182465,0.0570545,0.0927718,0.289449,0.433192
1413393233605760512,-2.97106,2.91671,0.406278,-0.299347,0.703919,0.415571,0.492129,0.433783,0.442242,0.322989,-0.00139442,0.0182438,0.0570945,0.0939011,0.288617,0.435598
1413393233655760384,-2.94991,2.9381,0.422437,-0.291171,0.709693,0.410459,0.49303,0.425675,0.43477,0.354807,-0.00139277,0.0182773,0.0571669,0.0958116,0.286137,0.440081
1413393233705760512,-2.92921,2.9586,0.440369,-0.282931,0.716183,0.40458,0.493302,0.408386,0.430537,0.386677,-0.00138106,0.018282,0.0571844,0.0952312,0.290053,0.436482
1413393233755760384,-2.90891,2.98043,0.461658,-0.274793,0.719758,0.398395,0.497714,0.39326,0.441173,0.445198,-0.00137076,0.0182906,0.0572388,0.0977025,0.290265,0.440854
1413393233805760512,-2.89013,3.0021,0.484138,-0.270883,0.723695,0.389146,0.501452,0.364178,0.432552,0.464687,-0.00136905,0.0183048,0.0572784,0.0990004,0.289793,0.442507
1413393233855760384,-2.87245,3.02341,0.506777,-0.268242,0.725568,0.380163,0.507024,0.334676,0.447285,0.451288,-0.00135795,0.0182937,0.0572982,0.0975943,0.293804,0.438803
1413393233905760512,-2.85625,3.0453,0.529152,-0.268928,0.728027,0.36971,0.510851,0.317316,0.444849,0.448789,-0.00136799,0.0182659,0.0573242,0.0976432,0.292591,0.43904
1413393233955760384,-2.8408,3.06707,0.551456,-0.267245,0.730411,0.359134,0.515852,0.310875,0.426125,0.442282,-0.00138817,0.0182735,0.057351,0.098318,0.288606,0.442295
1413393234005760512,-2.82631,3.08816,0.573033,-0.265375,0.734565,0.350385,0.516934,0.286399,0.425392,0.449251,-0.00138699,0.0182884,0.0573757,0.0985993,0.28484,0.443851
1413393234055760384,-2.81233,3.10892,0.595198,-0.262957,0.739606,0.341641,0.516834,0.274099,0.408435,0.439503,-0.00138465,0.0183078,0.0574178,0.100536,0.280356,0.449022
1413393234105760512,-2.79895,3.12843,0.616381,-0.258967,0.745319,0.333347,0.516057,0.26884,0.384429,0.427022,-0.00138723,0.0183144,0.0574595,0.102206,0.277639,0.450534
1413393234155760384,-2.7863,3.14759,0.636878,-0.254174,0.751007,0.326083,0.514834,0.255982,0.370739,0.387505,-0.00139468,0.0183404,0.0574864,0.105094,0.270287,0.45521
1413393234205760512,-2.77395,3.16503,0.655054,-0.252357,0.754966,0.318119,0.51492,0.260684,0.346401,0.367797,-0.00139394,0.018341,0.0575461,0.106197,0.26585,0.452312
1413393234255760384,-2.76106,3.18138,0.672501,-0.254451,0.756342,0.306982,0.518617,0.275059,0.314021,0.339152,-0.00140107,0.0183156,0.0575671,0.110273,0.262197,0.45087
1413393234305760512,-2.75071,3.19759,0.686906,-0.259524,0.756333,0.292479,0.524466,0.280558,0.280429,0.314687,-0.00131344,0.0182782,0.0576108,0.108895,0.259723,0.437752
1413393234355760384,-2.76205,3.22585,0.674555,-0.260717,0.754118,0.270255,0.538791,0.278327,0.226855,0.290893,-0.000615859,0.0179678,0.0577412,0.0635477,0.19497,0.327883
1413393234405760512,-2.7397,3.23823,0.656246,-0.265019,0.751459,0.259899,0.545461,0.267205,0.170993,0.228624,-0.000673266,0.0178911,0.0580602,0.0527747,0.14893,0.292753
1413393234455760384,-2.73046,3.24822,0.669273,-0.266791,0.752326,0.246976,0.549391,0.248752,0.115376,0.189946,-0.000587163,0.0179288,0.0581123,0.0580279,0.124295,0.295707
1413393234505760512,-2.71819,3.2512,0.676644,-0.2662,0.752777,0.236981,0.553448,0.238022,0.0320201,0.147203,-0.000597397,0.0179026,0.0581587,0.0597251,0.122837,0.288035
1413393234555760384,-2.70616,3.25084,0.684924,-0.260301,0.753841,0.229743,0.55784,0.238832,-0.0662927,0.186277,-0.000604749,0.0179497,0.058206,0.0628888,0.116363,0.287403
1413393234605760512,-2.69455,3.24496,0.69263,-0.246626,0.753987,0.227661,0.564669,0.247021,-0.143175,0.180318,-0.000610597,0.0179272,0.0582157,0.0635557,0.114764,0.278902
1413393234655760384,-2.68179,3.23576,0.703901,-0.224708,0.75491,0.231348,0.571047,0.239906,-0.230301,0.241037,-0.000614704,0.0179266,0.0582809,0.064293,0.11325,0.274776
1413393234705760512,-2.67069,3.22218,0.719622,-0.201,0.756811,0.235251,0.575755,0.20625,-0.306426,0.377967,-0.000625796,0.0179461,0.0583151,0.0650487,0.111748,0.27284
1413393234755760384,-2.66139,3.20638,0.739264,-0.181053,0.761251,0.236592,0.57597,0.168519,-0.340915,0.390652,-0.000634348,0.0179705,0.0583426,0.0651089,0.107174,0.275113
1413393234805760512,-2.65346,3.18923,0.759033,-0.161315,0.767028,0.23787,0.573641,0.138011,-0.34961,0.38033,-0.000624082,0.0179812,0.0583626,0.064147,0.105246,0.275682
1413393234855760384,-2.64722,3.17205,0.776352,-0.147559,0.774333,0.234201,0.569022,0.116994,-0.350585,0.306828,-0.000633855,0.01801,0.0584002,0.0620103,0.101292,0.277208
1413393234905760512,-2.64221,3.15568,0.79012,-0.139732,0.780994,0.225921,0.565228,0.100943,-0.340205,0.219203,-0.000617261,0.0180372,0.0584392,0.0605529,0.0949533,0.278704
1413393234955760384,-2.63808,3.14068,0.799038,-0.134427,0.786696,0.215665,0.562608,0.0779554,-0.321031,0.117421,-0.000598193,0.0180681,0.0584642,0.0593486,0.0865997,0.283215
1413393235005760512,-2.63559,3.12618,0.802387,-0.132857,0.79239,0.201915,0.560087,0.0593981,-0.306055,0.019688,-0.000576564,0.0180791,0.0584673,0.0572028,0.082193,0.283292
1413393235055760384,-2.63469,3.11289,0.80164,-0.132162,0.797117,0.186455,0.558903,0.0520958,-0.297741,-0.075324,-0.000525675,0.0181149,0.0584627,0.0551773,0.0753939,0.285309
1413393235105760512,-2.66816,3.11648,0.802355,-0.120945,0.802154,0.158095,0.562963,0.0354632,-0.303983,-0.159798,0.00044007,0.0180974,0.058191,0.0368059,0.048906,0.247631
1413393235155760384,-2.66767,3.10166,0.793055,-0.116618,0.805646,0.144837,0.562457,0.0426516,-0.30658,-0.230852,0.000479648,0.0181131,0.0582149,0.034503,0.0441301,0.244321
1413393235205760512,-2.66625,3.08667,0.781071,-0.107684,0.80757,0.134927,0.563941,0.047348,-0.309165,-0.248513,0.000518858,0.0181193,0.0582528,0.0327001,0.0412349,0.239208
1413393235255760384,-2.66486,3.07178,0.768898,-0.0948725,0.810184,0.128391,0.564019,0.0501832,-0.311092,-0.26444,0.000561931,0.0181469,0.058278,0.0315852,0.0353606,0.236512
1413393235305760512,-2.6635,3.05751,0.757259,-0.0801333,0.81251,0.123662,0.564015,0.0573611,-0.305164,-0.240196,0.000592924,0.0181569,0.0583373,0.0290154,0.0266473,0.233184
1413393235355760384,-2.66213,3.04385,0.7481,-0.067134,0.815416,0.119567,0.5624,0.0624461,-0.291606,-0.229006,0.0006412,0.0182028,0.0583611,0.0283129,0.0167242,0.233372
1413393235405760512,-2.66145,3.03258,0.74035,-0.0550307,0.818758,0.116688,0.559456,0.0646787,-0.26946,-0.202855,0.000706971,0.0182676,0.0584113,0.0289447,-0.000862442,0.234537
1413393235455760384,-2.67535,3.04189,0.74695,-0.0328362,0.824198,0.106515,0.555225,0.0745577,-0.244842,-0.176639,0.00145041,0.0186754,0.0581861,0.0556934,-0.12686,0.2983
1413393235505760512,-2.66417,3.02661,0.737002,-0.0262823,0.827137,0.106945,0.551104,0.0981881,-0.208558,-0.140539,0.00134476,0.0187023,0.0582424,0.0603549,-0.1217,0.308661
1413393235555760384,-2.66123,3.02075,0.729997,-0.0148693,0.826078,0.107445,0.553019,0.127131,-0.161088,-0.0947757,0.00138707,0.0187085,0.0582874,0.0575172,-0.137788,0.299368
1413393235605760512,-2.6587,3.01686,0.726476,-0.00158465,0.823578,0.108758,0.556676,0.136757,-0.111303,-0.109326,0.00148334,0.0187411,0.0583164,0.0539634,-0.152134,0.289447
1413393235655760384,-2.6505,3.01217,0.720826,0.00692639,0.821224,0.108617,0.56013,0.149222,-0.054469,-0.0858763,0.00145962,0.0187527,0.0583385,0.0528761,-0.153763,0.284356
1413393235705760512,-2.64271,3.01123,0.716663,0.012509,0.818419,0.107941,0.564254,0.14677,0.0127931,-0.0864093,0.00144363,0.0187556,0.0583653,0.052127,-0.156443,0.279544
1413393235755760384,-2.63505,3.01317,0.712251,0.0132687,0.817058,0.104511,0.56685,0.141454,0.0743519,-0.0759117,0.00141355,0.0187678,0.0584052,0.0511797,-0.158456,0.273703
1413393235805760512,-2.62789,3.01814,0.708119,0.0104252,0.816118,0.0998507,0.569098,0.128094,0.135887,-0.0685829,0.00140448,0.0187736,0.0584319,0.0501795,-0.161609,0.268026
1413393235855760384,-2.62133,3.02588,0.704356,0.000920213,0.815297,0.0914645,0.571774,0.118243,0.176278,-0.072889,0.00139864,0.0187764,0.0584705,0.0488185,-0.162992,0.262064
1413393235905760512,-2.61534,3.03532,0.700662,-0.0102491,0.814704,0.0808361,0.574123,0.100964,0.202993,-0.0775566,0.00136472,0.0187927,0.0585082,0.0467181,-0.164246,0.256966
1413393235955760384,-2.60976,3.0459,0.697081,-0.0206454,0.814342,0.0696775,0.575818,0.0938591,0.22195,-0.0686655,0.00135207,0.0187937,0.0585245,0.0440863,-0.165775,0.252513
1413393236005760512,-2.6045,3.05667,0.694433,-0.0265117,0.813136,0.0602991,0.578335,0.080647,0.216672,-0.046171,0.00132708,0.0188156,0.0585594,0.0418929,-0.166873,0.249356
1413393236055760384,-2.59944,3.06687,0.691506,-0.0317119,0.812448,0.0495424,0.580058,0.0821536,0.206858,-0.0465542,0.00129948,0.0188176,0.0585754,0.0393662,-0.165098,0.243961
1413393236105760512,-2.59358,3.07625,0.688265,-0.0334797,0.812264,0.0398808,0.580962,0.105944,0.193173,-0.00901803,0.00126747,0.0188176,0.0585873,0.0367832,-0.162154,0.238763
1413393236155760384,-2.58736,3.08407,0.687625,-0.0326503,0.812344,0.0303445,0.581473,0.0731614,0.150845,-0.0011199,0.00124603,0.0188043,0.058611,0.0342744,-0.156305,0.236109
1413393236205760512,-2.58247,3.08941,0.687411,-0.0257991,0.81368,0.023415,0.580268,0.0567069,0.12519,0.0320391,0.00120102,0.0188088,0.0586727,0.0304965,-0.151097,0.231328
1413393236255760384,-2.56372,3.08165,0.674263,-0.0231467,0.814442,0.0256201,0.579217,0.0275634,0.116433,0.0739417,0.000651726,0.01863,0.0589643,0.0162599,-0.103252,0.203216
1413393236305760512,-2.56115,3.08539,0.676527,-0.00986893,0.815816,0.0215553,0.577826,0.0348194,0.0834518,0.063991,0.000621884,0.0186277,0.059017,0.0125564,-0.101786,0.199313
1413393236355760384,-2.55847,3.08859,0.679331,0.00130799,0.816489,0.0151576,0.57716,0.0340324,0.0857442,0.103204,0.000578139,0.0186295,0.0590839,0.00862447,-0.0981563,0.195457
1413393236405760512,-2.55616,3.09218,0.682972,0.00892032,0.817563,0.00720421,0.575725,0.0351455,0.101566,0.106254,0.000544717,0.0186255,0.0591469,0.00507716,-0.0951198,0.190658
1413393236455760384,-2.5538,3.09602,0.687265,0.0151311,0.817894,-0.00216916,0.575166,0.0267892,0.0973759,0.0963646,0.000504994,0.0186283,0.0592118,0.00197214,-0.0917825,0.186003
1413393236505760512,-2.55187,3.10028,0.691356,0.0200428,0.819856,-0.0127403,0.572077,0.0317923,0.0918284,0.0969693,0.000486768,0.0186246,0.0592551,-0.000952107,-0.0883407,0.181969
1413393236555760384,-2.54969,3.10436,0.695777,0.0252461,0.8226,-0.0230117,0.567594,0.0430942,0.094741,0.103869,0.00046267,0.018624,0.0593039,-0.00336045,-0.0828459,0.179157
1413393236605760512,-2.5473,3.10846,0.700209,0.0298265,0.82666,-0.0338268,0.560892,0.0597769,0.0982708,0.105353,0.00043837,0.0185957,0.0593299,-0.00565198,-0.0757437,0.175651
1413393236655760384,-2.5437,3.11279,0.703708,0.033803,0.829973,-0.0444144,0.555005,0.0905567,0.0966843,0.0539,0.000436787,0.0185974,0.0593435,-0.0084945,-0.0711388,0.173585
1413393236705760512,-2.53873,3.11733,0.704397,0.036172,0.831184,-0.0539967,0.552185,0.101356,0.10025,0.000905621,0.000407236,0.0185869,0.0593665,-0.0105902,-0.0681389,0.172366
1413393236755760384,-2.53287,3.12134,0.702527,0.0362256,0.830852,-0.0642546,0.551583,0.120426,0.0884889,-0.0418673,0.000398212,0.0185903,0.0594023,-0.0115991,-0.06339,0.171825
1413393236805760512,-2.52615,3.12488,0.698584,0.0348402,0.828904,-0.075109,0.553229,0.13672,0.077572,-0.0837645,0.000391662,0.0185779,0.0594117,-0.0130237,-0.0601819,0.170549
1413393236855760384,-2.51844,3.12816,0.694421,0.0357909,0.826532,-0.0830853,0.555572,0.165368,0.0580428,-0.0739728,0.000376993,0.0185882,0.0594696,-0.014235,-0.0600037,0.171525
1413393236905760512,-2.50932,3.13021,0.691723,0.0380044,0.824202,-0.0885716,0.558035,0.186629,0.0309496,-0.00694059,0.00036284,0.0185866,0.0595056,-0.0164202,-0.0608701,0.171241
1413393236955760384,-2.49944,3.13081,0.691356,0.0420931,0.820805,-0.0910825,0.562328,0.21293,-0.00377729,0.0311309,0.000352103,0.0186081,0.0595352,-0.0183214,-0.060241,0.169766
1413393237005760512,-2.48807,3.13008,0.695361,0.0473834,0.817768,-0.0908046,0.566361,0.232311,-0.0194603,0.115887,0.00033844,0.0186317,0.0595844,-0.0206918,-0.0588956,0.169554
1413393237055760384,-2.47643,3.12786,0.702041,0.0528014,0.815725,-0.0893109,0.569059,0.229303,-0.0394147,0.181068,0.000336093,0.0186127,0.0596215,-0.0221237,-0.052437,0.170718
1413393237105760512,-2.46379,3.12433,0.711659,0.0596728,0.814173,-0.0856669,0.571159,0.236451,-0.0394956,0.253444,0.000297851,0.0185967,0.0596081,-0.0236126,-0.0395501,0.175868
1413393237155760384,-2.45093,3.12147,0.722975,0.0675754,0.811977,-0.0802273,0.574187,0.242532,-0.0268601,0.23835,0.000275829,0.0185678,0.0596457,-0.0241687,-0.0323974,0.178657
1413393237205760512,-2.43826,3.11984,0.733229,0.0751093,0.810673,-0.0742982,0.575889,0.240397,-0.0103417,0.194843,0.000279485,0.0185486,0.059636,-0.0251733,-0.0297195,0.184064
1413393237255760384,-2.42545,3.11899,0.740401,0.0802967,0.809681,-0.0700193,0.57712,0.247564,-0.0074319,0.125508,0.000249733,0.0185797,0.0597017,-0.0278628,-0.0294781,0.187123
1413393237305760512,-2.41289,3.11905,0.744334,0.0842189,0.810188,-0.0664326,0.576272,0.23851,0.0209688,0.0705376,0.000240386,0.0186022,0.0597371,-0.0294964,-0.0290849,0.188247
1413393237355760384,-2.40103,3.12065,0.74553,0.0864344,0.810715,-0.0631845,0.575568,0.228094,0.0532378,0.00090447,0.000236944,0.018614,0.0597866,-0.03067,-0.0297607,0.187964
1413393237405760512,-2.38966,3.12388,0.743672,0.087127,0.810158,-0.0613117,0.57645,0.221229,0.0730849,-0.0656354,0.000222663,0.0186366,0.0598354,-0.0318267,-0.0319543,0.187474
1413393237455760384,-2.3782,3.12851,0.739178,0.0842814,0.809752,-0.0614026,0.577433,0.220468,0.117346,-0.0939433,0.000221584,0.0186174,0.0599052,-0.0322517,-0.0312496,0.186138
1413393237505760512,-2.36676,3.135,0.7339,0.0775365,0.809164,-0.0638905,0.57893,0.223225,0.146417,-0.110229,0.000204511,0.0186208,0.0599362,-0.0324253,-0.0318141,0.187338
1413393237555760384,-2.3553,3.14276,0.728379,0.0686641,0.809294,-0.0679718,0.579404,0.216407,0.164254,-0.103731,0.000196896,0.0186266,0.0599543,-0.0315934,-0.0327661,0.189048
1413393237605760512,-2.34408,3.15105,0.723108,0.0594803,0.80869,-0.0723459,0.580731,0.214641,0.167953,-0.103454,0.000185692,0.0186313,0.0600073,-0.0321042,-0.0337911,0.191726
1413393237655760384,-2.33302,3.15921,0.717734,0.0502491,0.809688,-0.076562,0.579671,0.207069,0.161828,-0.0898211,0.000171455,0.0186332,0.0600301,-0.0322811,-0.0360604,0.19153
1413393237705760512,-2.32213,3.16712,0.712658,0.0426849,0.809914,-0.0796191,0.57955,0.199327,0.147948,-0.095435,0.00014115,0.0186438,0.0600838,-0.0326242,-0.039604,0.19132
1413393237755760384,-2.31165,3.17424,0.708727,0.0375686,0.810873,-0.0808915,0.578386,0.187281,0.128838,-0.0823065,0.000125071,0.018652,0.0601168,-0.0323005,-0.0450196,0.19576
1413393237805760512,-2.30176,3.17994,0.704064,0.0341355,0.811733,-0.0812516,0.577342,0.188508,0.104313,-0.0583609,8.84862e-05,0.0186659,0.0601594,-0.0334922,-0.0468108,0.196645
1413393237855760384,-2.29207,3.18445,0.700584,0.0338162,0.813422,-0.0794254,0.575233,0.189213,0.0811582,-0.0669357,6.77057e-05,0.0186726,0.0601931,-0.0353074,-0.0485835,0.196184
1413393237905760512,-2.28234,3.18813,0.69802,0.0352915,0.815511,-0.0765605,0.572569,0.183382,0.0583395,-0.0424227,5.37561e-05,0.0186913,0.0602503,-0.037633,-0.0526953,0.193012
1413393237955760384,-2.27282,3.191,0.696272,0.0375414,0.816986,-0.0743194,0.570614,0.177625,0.0333633,-0.0513524,5.9068e-05,0.0186881,0.0602635,-0.0364658,-0.0564278,0.19577
1413393238005760512,-2.26318,3.19237,0.692841,0.0443183,0.820499,-0.0690834,0.565725,0.181413,0.018658,-0.0518362,4.84696e-05,0.0186896,0.0603071,-0.036811,-0.0589021,0.198071
1413393238055760384,-2.2532,3.19315,0.689847,0.0507672,0.823183,-0.0640194,0.561867,0.204401,0.0167709,-0.033401,4.10836e-05,0.018674,0.0603261,-0.0381098,-0.059506,0.197644
1413393238105760512,-2.24256,3.19349,0.687806,0.0554398,0.825699,-0.0607868,0.558079,0.222353,0.0101807,-0.0300251,3.69267e-05,0.0186924,0.0603727,-0.0390585,-0.057452,0.20016
1413393238155760384,-2.23041,3.19451,0.68733,0.0605169,0.826263,-0.0577871,0.557035,0.236423,0.00762592,-0.00228731,-3.55081e-06,0.0186878,0.0604281,-0.0405036,-0.068852,0.196506
1413393238205760512,-2.21752,3.19582,0.686932,0.0644065,0.826898,-0.0559219,0.555846,0.268695,0.0274454,0.0101252,-2.57838e-05,0.0187167,0.0604902,-0.0435524,-0.0730783,0.193844
1413393238255760384,-2.20353,3.19757,0.689448,0.0673131,0.827109,-0.0548034,0.555299,0.273638,0.0462672,0.0678898,-2.84648e-05,0.0187344,0.0605445,-0.0442761,-0.0754293,0.193737
1413393238305760512,-2.18851,3.20019,0.693031,0.069889,0.827422,-0.0554364,0.55445,0.308038,0.0545224,0.135797,-5.10823e-05,0.0187572,0.0605838,-0.0419039,-0.0769469,0.19321
1413393238355760384,-2.17173,3.20363,0.700938,0.070565,0.827751,-0.0566367,0.553752,0.34285,0.0839496,0.171198,-6.24513e-05,0.018745,0.0606359,-0.0385979,-0.0781643,0.19088
1413393238405760512,-2.15324,3.208,0.711252,0.0706808,0.82724,-0.0582366,0.554334,0.384893,0.0997492,0.236614,-8.11906e-05,0.0187479,0.0606583,-0.0357812,-0.0773271,0.18825
1413393238455760384,-2.1332,3.21346,0.723791,0.0680342,0.825758,-0.0618319,0.556483,0.406269,0.117856,0.259946,-8.40381e-05,0.0187445,0.0607023,-0.0339194,-0.0763927,0.184091
1413393238505760512,-2.11213,3.21941,0.735414,0.0618335,0.824282,-0.0681294,0.558654,0.425449,0.12868,0.223973,-9.55931e-05,0.0187308,0.0607273,-0.0328598,-0.0732849,0.182453
1413393238555760384,-2.09023,3.22563,0.744618,0.0542297,0.821464,-0.0753499,0.562653,0.432982,0.1339,0.16684,-0.000115262,0.0187284,0.0607468,-0.0331676,-0.0703358,0.181728
1413393238605760512,-2.06765,3.2315,0.75097,0.0456715,0.818714,-0.0829414,0.566341,0.451452,0.117646,0.110184,-0.000118762,0.0187328,0.0607709,-0.0335771,-0.0667633,0.18062
1413393238655760384,-2.04451,3.23646,0.755077,0.0379382,0.816817,-0.090003,0.568569,0.460194,0.0935082,0.0709332,-0.000139877,0.018744,0.0607823,-0.0324706,-0.0643541,0.181021
1413393238705760512,-2.02117,3.2404,0.756698,0.0319901,0.815239,-0.0954909,0.570301,0.459928,0.0668007,0.00906816,-0.000157295,0.0187556,0.0607971,-0.0313668,-0.0632011,0.181846
1413393238755760384,-1.99827,3.24264,0.75602,0.0276993,0.814011,-0.0995752,0.571581,0.453637,0.0268388,-0.0286157,-0.000163948,0.01876,0.0608307,-0.0301695,-0.0617849,0.181069
1413393238805760512,-1.97564,3.24281,0.754165,0.0266886,0.81302,-0.101241,0.572745,0.446218,-0.0100815,-0.041824,-0.000169702,0.0187725,0.0608556,-0.0292013,-0.0608727,0.179742
1413393238855760384,-1.95355,3.24098,0.751963,0.0288227,0.812848,-0.100608,0.572997,0.435047,-0.0563557,-0.0333287,-0.000177098,0.0187905,0.0608768,-0.0285183,-0.0597602,0.178596
1413393238905760512,-1.93197,3.23709,0.750039,0.0338936,0.813093,-0.0978738,0.572845,0.436837,-0.0958025,-0.0227612,-0.000182132,0.0188233,0.0609154,-0.0278847,-0.059326,0.176123
1413393238955760384,-1.91066,3.23159,0.749628,0.0422065,0.813771,-0.0925222,0.57222,0.423237,-0.126191,-0.00669464,-0.000185585,0.0188248,0.0609459,-0.0273869,-0.0601824,0.172599
1413393239005760512,-1.88955,3.2249,0.750066,0.0516091,0.813949,-0.0869837,0.572064,0.420288,-0.150868,0.0122177,-0.000196956,0.0188096,0.0609919,-0.0267588,-0.0620204,0.169267
1413393239055760384,-1.86845,3.2179,0.750315,0.0595716,0.81468,-0.0814015,0.57107,0.430768,-0.136131,0.00913649,-0.000202308,0.018813,0.0610288,-0.0267417,-0.0646086,0.16595
1413393239105760512,-1.84714,3.2111,0.750798,0.0662507,0.814897,-0.0771748,0.570612,0.4273,-0.14839,-0.00173532,-0.000199091,0.0188375,0.0610653,-0.0265497,-0.0688994,0.162431
1413393239155760384,-1.82569,3.20477,0.75149,0.0711169,0.814863,-0.0743392,0.570451,0.437968,-0.128232,0.0182873,-0.000206648,0.0188494,0.0611052,-0.0264847,-0.0747435,0.157487
1413393239205760512,-1.80369,3.19939,0.752388,0.0751657,0.815428,-0.0712263,0.569521,0.450219,-0.104397,9.83474e-05,-0.000222227,0.0188543,0.0611396,-0.0269672,-0.0813236,0.15451
1413393239255760384,-1.78145,3.19447,0.753405,0.0772727,0.815048,-0.0704927,0.569875,0.446191,-0.109164,0.00821473,-0.000216405,0.0188715,0.0611679,-0.0264532,-0.0855975,0.150592
1413393239305760512,-1.75896,3.18996,0.754217,0.0799393,0.815307,-0.069417,0.569268,0.458446,-0.0823335,0.0168927,-0.000215608,0.018887,0.0611989,-0.0260502,-0.0884601,0.147369
1413393239355760384,-1.7359,3.18646,0.755173,0.0807993,0.815982,-0.0686434,0.568272,0.466679,-0.0614781,0.0256368,-0.000221258,0.018914,0.0612267,-0.0248975,-0.0902234,0.144917
1413393239405760512,-1.71233,3.18361,0.756401,0.0813283,0.816169,-0.0689029,0.567897,0.474495,-0.0515874,0.0267144,-0.000214266,0.0189181,0.0612598,-0.0236906,-0.0919826,0.144129
1413393239455760384,-1.68829,3.18192,0.758067,0.0807197,0.816654,-0.0696805,0.567191,0.482227,-0.019595,0.0288639,-0.000226955,0.0189044,0.0612806,-0.0229255,-0.0927006,0.142468
1413393239505760512,-1.66385,3.1813,0.7608,0.082811,0.816769,-0.0679381,0.566935,0.492664,-0.00509903,0.0580647,-0.000228839,0.0189265,0.0613158,-0.0226186,-0.0929779,0.14119
1413393239555760384,-1.63908,3.18199,0.763671,0.0806904,0.816936,-0.0696661,0.566791,0.496622,0.021263,0.0576703,-0.000227994,0.0189286,0.0613413,-0.0229747,-0.0942219,0.139975
1413393239605760512,-1.61409,3.18408,0.767178,0.0765856,0.817164,-0.0718563,0.566758,0.506427,0.0562865,0.0692867,-0.000238509,0.0189274,0.0613784,-0.0229814,-0.0953687,0.137927
1413393239655760384,-1.58868,3.18688,0.771358,0.0693827,0.816701,-0.0767891,0.567706,0.516518,0.0557947,0.0946368,-0.000232501,0.0189372,0.0614021,-0.0228091,-0.09571,0.136933
1413393239705760512,-1.56256,3.18952,0.77557,0.0589013,0.816153,-0.0840199,0.568652,0.528122,0.0455721,0.0955246,-0.000235866,0.0189425,0.0614281,-0.0228307,-0.0958544,0.135864
1413393239755760384,-1.5358,3.19151,0.780324,0.0501938,0.815435,-0.0896614,0.569655,0.540415,0.0359921,0.0886845,-0.000240411,0.0189535,0.061462,-0.0219081,-0.0952636,0.135491
1413393239805760512,-1.50868,3.19227,0.784883,0.0447418,0.815204,-0.0931725,0.569877,0.542709,-0.00242652,0.0948139,-0.000236741,0.0189642,0.0614901,-0.020336,-0.0946812,0.136284
1413393239855760384,-1.48157,3.19164,0.789083,0.0419281,0.816041,-0.0952481,0.568548,0.539978,-0.0207333,0.0741482,-0.000232751,0.0189818,0.0615088,-0.0193506,-0.0936154,0.136833
1413393239905760512,-1.45434,3.18972,0.793244,0.0437054,0.816906,-0.0938463,0.567405,0.544209,-0.044678,0.0932382,-0.000242922,0.0190063,0.0615284,-0.0177564,-0.091175,0.138843
1413393239955760384,-1.42692,3.18665,0.797458,0.0451852,0.817133,-0.092761,0.56714,0.55261,-0.0707261,0.104702,-0.000248791,0.0190156,0.0615351,-0.016144,-0.0907103,0.140535
1413393240005760512,-1.39911,3.18244,0.802239,0.0494236,0.816681,-0.0896857,0.567931,0.559669,-0.090642,0.101093,-0.000251883,0.0190378,0.0615533,-0.0146298,-0.0896856,0.141895
1413393240055760384,-1.37108,3.17752,0.807582,0.0546411,0.816328,-0.0853665,0.568626,0.55875,-0.104681,0.109309,-0.000257404,0.0190493,0.0615707,-0.0133676,-0.0887322,0.142839
1413393240105760512,-1.34303,3.17205,0.813357,0.0619287,0.815228,-0.0799301,0.570246,0.558058,-0.118565,0.118627,-0.00024042,0.019045,0.0616049,-0.0120641,-0.0882265,0.144073
1413393240155760384,-1.315,3.16652,0.818599,0.0681013,0.814516,-0.0748259,0.57125,0.560419,-0.106987,0.0869224,-0.000239502,0.0190476,0.0616342,-0.0116132,-0.0879428,0.144887
1413393240205760512,-1.28722,3.16136,0.822127,0.0721716,0.813799,-0.0710137,0.572258,0.549371,-0.0937921,0.0464466,-0.000243346,0.0190425,0.0616523,-0.0110834,-0.0873233,0.146881
1413393240255760384,-1.25963,3.15682,0.823146,0.0749549,0.81433,-0.0683037,0.571474,0.55101,-0.0795611,-0.0056611,-0.000249752,0.0190503,0.0616755,-0.00989446,-0.0874087,0.149301
1413393240305760512,-1.23201,3.15338,0.821167,0.0740494,0.814471,-0.0684757,0.571371,0.556118,-0.055213,-0.0628663,-0.000255715,0.0190342,0.0616962,-0.00867686,-0.0872296,0.151654
1413393240355760384,-1.20402,3.15072,0.816585,0.0721534,0.814388,-0.0694729,0.571612,0.559386,-0.0441218,-0.119096,-0.000260296,0.0190465,0.0617297,-0.0074963,-0.0882778,0.154821
1413393240405760512,-1.17568,3.14863,0.809267,0.0675679,0.81396,-0.0727418,0.572374,0.573748,-0.0400181,-0.16144,-0.000259399,0.0190671,0.0617693,-0.00655512,-0.0888746,0.158754
1413393240455760384,-1.14719,3.1465,0.800238,0.0635034,0.813172,-0.0751902,0.573642,0.569667,-0.0445511,-0.202107,-0.000262076,0.0190827,0.0617984,-0.00526968,-0.0886516,0.162556
1413393240505760512,-1.11915,3.14434,0.789526,0.0575719,0.81268,-0.0794234,0.574395,0.549844,-0.0453471,-0.21244,-0.000259849,0.0190785,0.0618166,-0.00414067,-0.0888178,0.165013
1413393240555760384,-1.09203,3.14185,0.7798,0.0531481,0.811871,-0.0826979,0.575501,0.536054,-0.0536803,-0.174313,-0.000283373,0.0190933,0.0618314,-0.00323606,-0.088244,0.167973
1413393240605760512,-1.0654,3.13867,0.77276,0.0496091,0.811361,-0.085427,0.576137,0.513129,-0.0615938,-0.125695,-0.000284056,0.0191071,0.0618588,-0.00212475,-0.0872179,0.171577
1413393240655760384,-1.03915,3.13508,0.768329,0.0487032,0.811433,-0.0867577,0.575915,0.532326,-0.0771503,-0.0699501,-0.000294771,0.0191063,0.0618712,-0.00155623,-0.086713,0.173851
1413393240705760512,-1.01219,3.13084,0.76826,0.0496995,0.811584,-0.0874116,0.575518,0.547646,-0.0941436,0.0609026,-0.000330562,0.0190989,0.061905,-0.00302564,-0.0858442,0.17271
1413393240755760384,-0.985014,3.12609,0.773281,0.0538329,0.810873,-0.0860566,0.576351,0.534032,-0.0937017,0.107663,-0.000313869,0.0191007,0.0619287,-0.00669959,-0.0847712,0.171351
1413393240805760512,-0.958319,3.12138,0.779054,0.0583588,0.809465,-0.084531,0.578113,0.533176,-0.100744,0.127937,-0.000317639,0.0191068,0.0619395,-0.0109704,-0.0861653,0.170296
1413393240855760384,-0.931691,3.11626,0.783786,0.0640097,0.808077,-0.0819595,0.579826,0.529047,-0.0983481,0.100759,-0.000328914,0.0191108,0.0619608,-0.0145716,-0.0842922,0.17107
1413393240905760512,-0.905229,3.11098,0.787154,0.0675102,0.805385,-0.081223,0.583268,0.515119,-0.112921,0.0503287,-0.00032265,0.0191141,0.0619837,-0.019203,-0.0837644,0.168971
1413393240955760384,-0.880035,3.10555,0.787518,0.0708816,0.802694,-0.0807518,0.586633,0.48338,-0.108553,-0.011519,-0.000331277,0.0191261,0.0620003,-0.0216407,-0.082201,0.171252
1413393241005760512,-0.855739,3.10039,0.78517,0.07332,0.800168,-0.0803198,0.589834,0.47723,-0.102851,-0.0605299,-0.00033161,0.0191403,0.0620313,-0.022913,-0.0801874,0.174064
1413393241055760384,-0.831879,3.09536,0.780541,0.0737438,0.79785,-0.0815511,0.592745,0.460659,-0.103474,-0.11055,-0.000336433,0.0191571,0.0620591,-0.0233012,-0.0801413,0.176602
1413393241105760512,-0.809156,3.09066,0.772724,0.0709824,0.796871,-0.0849911,0.593915,0.438315,-0.0878756,-0.176619,-0.000348117,0.0191703,0.062074,-0.0235419,-0.0783544,0.178632
1413393241155760384,-0.787986,3.08628,0.762602,0.0663495,0.796488,-0.0898986,0.594241,0.40704,-0.0841183,-0.228977,-0.000344865,0.019175,0.0621085,-0.0234563,-0.0751055,0.179098
1413393241205760512,-0.76793,3.08218,0.750371,0.0615035,0.796877,-0.0946983,0.593496,0.391065,-0.0828912,-0.250003,-0.000357136,0.0191944,0.0621236,-0.0227385,-0.0736196,0.178898
1413393241255760384,-0.749038,3.07793,0.73797,0.0572929,0.797769,-0.0993047,0.591963,0.364331,-0.0903134,-0.253689,-0.000353423,0.0191976,0.0621587,-0.0221802,-0.072839,0.178294
1413393241305760512,-0.731278,3.07327,0.725645,0.054061,0.799749,-0.103289,0.588906,0.345551,-0.105431,-0.236379,-0.000357246,0.0191903,0.0621711,-0.020575,-0.0728827,0.178058
1413393241355760384,-0.714428,3.06762,0.71318,0.0536965,0.804898,-0.105266,0.581528,0.328183,-0.116646,-0.232577,-0.000353638,0.0192149,0.0622064,-0.019891,-0.0701368,0.179143
1413393241405760512,-0.697978,3.06134,0.701883,0.0532095,0.80836,-0.107084,0.576417,0.319949,-0.140969,-0.22157,-0.000360811,0.0192184,0.0622176,-0.0192923,-0.0686939,0.178657
1413393241455760384,-0.681968,3.05378,0.691663,0.0557633,0.810978,-0.106836,0.57253,0.314126,-0.164098,-0.187526,-0.000359684,0.0192117,0.06226,-0.0190253,-0.0664387,0.178402
1413393241505760512,-0.666181,3.04558,0.682847,0.0601346,0.812332,-0.104511,0.570595,0.31227,-0.167275,-0.153783,-0.0003655,0.0192207,0.0622861,-0.0185182,-0.0645445,0.177409
1413393241555760384,-0.650427,3.03668,0.674988,0.0652224,0.812043,-0.101647,0.570965,0.314075,-0.189866,-0.149839,-0.000368822,0.0192304,0.0623227,-0.0180733,-0.062982,0.176738
1413393241605760512,-0.63458,3.02728,0.667863,0.0711135,0.810645,-0.097953,0.57289,0.318597,-0.18702,-0.149777,-0.000371024,0.0192519,0.0623448,-0.0176045,-0.06166,0.17561
1413393241655760384,-0.618649,3.01819,0.660672,0.0753584,0.809701,-0.0947514,0.574219,0.319974,-0.171119,-0.140013,-0.000382026,0.0192231,0.062368,-0.017126,-0.0600499,0.175623
1413393241705760512,-0.602557,3.00958,0.653543,0.0798971,0.80854,-0.0913889,0.575785,0.321818,-0.169037,-0.145024,-0.000383657,0.0192505,0.0623937,-0.017133,-0.0587726,0.175342
1413393241755760384,-0.586333,3.00144,0.646217,0.0820213,0.808429,-0.0900323,0.575855,0.323404,-0.159121,-0.137401,-0.000398888,0.0192515,0.0624154,-0.0168547,-0.0585809,0.175235
1413393241805760512,-0.5701,2.99399,0.639082,0.0839678,0.809345,-0.0879538,0.574608,0.320942,-0.137287,-0.140817,-0.000393431,0.0192656,0.0624473,-0.0173897,-0.0570034,0.175852
1413393241855760384,-0.553945,2.98726,0.632343,0.0848074,0.810067,-0.086531,0.573682,0.322323,-0.129503,-0.132286,-0.00040952,0.019258,0.0624782,-0.0176749,-0.0556113,0.176578
1413393241905760512,-0.537769,2.98148,0.626776,0.0854034,0.809202,-0.0856136,0.574951,0.320693,-0.106609,-0.0900306,-0.000423352,0.0192626,0.0624998,-0.0178197,-0.0557917,0.176568
1413393241955760384,-0.521844,2.97693,0.622183,0.0859144,0.807231,-0.0833336,0.577973,0.31626,-0.0758047,-0.0887232,-0.000422619,0.0192686,0.062519,-0.0185154,-0.0546992,0.17708
1413393242005760512,-0.506131,2.9733,0.6173,0.0853899,0.805702,-0.0822586,0.580334,0.313351,-0.0668682,-0.0877157,-0.000444784,0.0192716,0.0625362,-0.0183387,-0.0517225,0.177579
1413393242055760384,-0.490668,2.97088,0.613502,0.0854211,0.803105,-0.0803898,0.584178,0.307257,-0.0311311,-0.0648793,-0.000438015,0.0192679,0.0625674,-0.0190362,-0.0510347,0.176703
1413393242105760512,-0.47573,2.96971,0.610219,0.085221,0.800798,-0.0784442,0.587628,0.293177,-0.0115854,-0.0558235,-0.000442048,0.0192736,0.0625974,-0.0196321,-0.050903,0.175896
1413393242155760384,-0.461625,2.96969,0.607691,0.0830496,0.797323,-0.0785228,0.592633,0.273697,0.0014569,-0.0468222,-0.00045143,0.0192924,0.0626153,-0.0206377,-0.0515791,0.175642
1413393242205760512,-0.448575,2.97066,0.60575,0.0799181,0.793495,-0.0788571,0.598131,0.248158,0.0377308,-0.0343433,-0.000451393,0.0192943,0.0626491,-0.0207143,-0.0508767,0.176131
1413393242255760384,-0.436973,2.97236,0.604168,0.0781252,0.791035,-0.0786883,0.601638,0.217107,0.0416519,-0.0279449,-0.000452704,0.0192928,0.0626722,-0.0209452,-0.0494771,0.176357
1413393242305760512,-0.426881,2.97498,0.603112,0.0760407,0.789872,-0.0796094,0.60331,0.181541,0.0529328,-0.0237941,-0.000456927,0.0193013,0.0626829,-0.0226157,-0.0507792,0.175688
1413393242355760384,-0.418569,2.97845,0.601843,0.0719729,0.790897,-0.0815928,0.602199,0.155868,0.0761599,-0.0368516,-0.000470905,0.0193129,0.0627063,-0.0249449,-0.052067,0.175556
1413393242405760512,-0.411826,2.98221,0.600531,0.0659755,0.793887,-0.0851715,0.598445,0.121186,0.082151,-0.0310579,-0.000460409,0.0193208,0.0627407,-0.0267763,-0.0504723,0.176561
1413393242455760384,-0.406401,2.98631,0.599013,0.0590065,0.798596,-0.0897756,0.592202,0.0977795,0.0863518,-0.0269736,-0.000455697,0.0193283,0.062754,-0.0279045,-0.049032,0.177919
1413393242505760512,-0.402159,2.99022,0.597473,0.0512747,0.804225,-0.0950704,0.584426,0.0750474,0.0813149,-0.0335493,-0.000453446,0.0193342,0.0627912,-0.0270438,-0.0466901,0.180258
1413393242555760384,-0.398737,2.99349,0.596577,0.0454128,0.809241,-0.0989047,0.577308,0.0668906,0.0571381,0.000383153,-0.000445497,0.0193506,0.062813,-0.0268768,-0.0452762,0.182417
1413393242605760512,-0.395583,2.9956,0.596669,0.0411047,0.813164,-0.10195,0.571561,0.0609022,0.0263208,0.0120291,-0.000452151,0.0193485,0.0628296,-0.0259616,-0.0449127,0.184285
1413393242655760384,-0.392336,2.99619,0.597727,0.0389903,0.81576,-0.103134,0.567785,0.0712282,0.00195647,0.0339563,-0.000454267,0.0193635,0.0628541,-0.0247045,-0.0441425,0.185976
1413393242705760512,-0.388671,2.99499,0.599606,0.0369252,0.816505,-0.104846,0.566537,0.0802395,-0.0422016,0.0342814,-0.000453736,0.0193826,0.0628612,-0.0241542,-0.044534,0.187281
1413393242755760384,-0.384486,2.99206,0.601839,0.0332011,0.816132,-0.106371,0.56702,0.0880791,-0.0667769,0.0607206,-0.000458131,0.0193955,0.0628969,-0.0233454,-0.0444752,0.189654
1413393242805760512,-0.379936,2.98716,0.604658,0.0319771,0.815587,-0.104889,0.568149,0.0951307,-0.106728,0.0622556,-0.00045382,0.0193934,0.0629177,-0.0223783,-0.0426991,0.191679
1413393242855760384,-0.375017,2.98096,0.608248,0.0325597,0.815388,-0.100325,0.569225,0.0990053,-0.134464,0.0819088,-0.000452947,0.019397,0.0629451,-0.0217339,-0.0423873,0.194014
1413393242905760512,-0.369796,2.97348,0.612553,0.0380653,0.815813,-0.0899679,0.570006,0.106776,-0.148411,0.0738165,-0.00044984,0.0193975,0.0629638,-0.0213778,-0.0432738,0.196389
1413393242955760384,-0.364511,2.96511,0.616783,0.0417781,0.817676,-0.0801355,0.568541,0.104584,-0.177054,0.0959215,-0.000440582,0.0194053,0.0629791,-0.0209299,-0.0424684,0.198337
1413393243005760512,-0.359041,2.95631,0.621778,0.043667,0.820107,-0.0697514,0.566263,0.117557,-0.171245,0.10145,-0.000442521,0.0194175,0.0630066,-0.0200592,-0.0424172,0.199849
1413393243055760384,-0.35289,2.94737,0.62719,0.0433661,0.82231,-0.058339,0.564378,0.127805,-0.173693,0.0927043,-0.000440851,0.0194188,0.0630341,-0.0188613,-0.0423349,0.201446
1413393243105760512,-0.346146,2.93841,0.63245,0.0409899,0.824569,-0.0476831,0.562257,0.14243,-0.177823,0.107884,-0.000436737,0.0194208,0.0630588,-0.0179476,-0.0425535,0.202918
1413393243155760384,-0.338562,2.93002,0.63849,0.0358369,0.825336,-0.0366891,0.562309,0.164895,-0.149989,0.127234,-0.000443938,0.0194528,0.0630757,-0.0173371,-0.0426382,0.202802
1413393243205760512,-0.330144,2.9222,0.645642,0.0298417,0.823643,-0.0255216,0.565748,0.18368,-0.143925,0.151569,-0.00044739,0.0194526,0.0630974,-0.0160167,-0.0418908,0.20422
1413393243255760384,-0.320926,2.9146,0.653563,0.0244951,0.819636,-0.0162591,0.57213,0.190979,-0.157296,0.149737,-0.000437976,0.0194483,0.063131,-0.0150613,-0.0400866,0.206424
1413393243305760512,-0.311299,2.90734,0.66,0.0199307,0.815292,-0.00723466,0.578661,0.195161,-0.128868,0.0985885,-0.000445511,0.0194564,0.0631494,-0.0140681,-0.0386835,0.207967
1413393243355760384,-0.301609,2.90034,0.663338,0.0144488,0.811927,-0.000664396,0.58358,0.191143,-0.141211,0.0480047,-0.000448852,0.0194516,0.0631721,-0.0130892,-0.0365322,0.209056
1413393243405760512,-0.292547,2.89342,0.664877,0.0107569,0.808609,0.00475073,0.588229,0.172698,-0.136176,0.0010004,-0.000443633,0.0194596,0.0631942,-0.0127853,-0.0357877,0.2099
1413393243455760384,-0.284501,2.88695,0.664104,0.0069525,0.806634,0.00972347,0.59093,0.155912,-0.119334,-0.0366791,-0.0004421,0.0194592,0.0632246,-0.0126164,-0.0351877,0.210696
1413393243505760512,-0.277263,2.88053,0.66082,0.00364706,0.804956,0.0135268,0.593169,0.135959,-0.121089,-0.101308,-0.00044984,0.0194772,0.0632381,-0.0125951,-0.0353684,0.212644
1413393243555760384,-0.270928,2.87432,0.654384,0.000547548,0.804179,0.0165571,0.594156,0.114422,-0.118812,-0.143926,-0.000457839,0.0194866,0.0632519,-0.012866,-0.0346011,0.213949
1413393243605760512,-0.265729,2.86816,0.646775,-0.00144377,0.804092,0.0191698,0.594194,0.0988134,-0.11489,-0.15157,-0.000448942,0.0194903,0.063288,-0.0129441,-0.0346772,0.214495
1413393243655760384,-0.261501,2.86235,0.638912,-0.00278491,0.804529,0.0214607,0.593519,0.0763509,-0.107025,-0.159939,-0.000455362,0.0194991,0.063304,-0.0130847,-0.0339206,0.216246
1413393243705760512,-0.258479,2.85705,0.631466,-0.00320209,0.805855,0.0238166,0.591626,0.0566687,-0.0914589,-0.125964,-0.00045779,0.0194979,0.0633439,-0.0133498,-0.0329266,0.217128
1413393243755760384,-0.256563,2.85227,0.625315,-0.00384224,0.807469,0.0251172,0.589363,0.0291229,-0.0858728,-0.110347,-0.000443786,0.0194926,0.0633796,-0.0127104,-0.0333614,0.218217
1413393243805760512,-0.255705,2.84817,0.620693,-0.00333062,0.809057,0.0266105,0.587119,0.00647023,-0.0753257,-0.0772479,-0.00045258,0.0195047,0.0634113,-0.0125,-0.0337594,0.219658
1413393243855760384,-0.255799,2.84463,0.617285,-0.00488167,0.809702,0.0267183,0.586213,-0.00689792,-0.0609702,-0.0660107,-0.000454912,0.0195082,0.0634463,-0.012445,-0.0334568,0.220704
1413393243905760512,-0.256788,2.84152,0.614969,-0.00430308,0.810101,0.0276724,0.585621,-0.0207279,-0.0581328,-0.0319056,-0.000442824,0.0195169,0.0634691,-0.0119525,-0.0347532,0.22114
1413393243955760384,-0.258273,2.83883,0.613437,-0.00433884,0.81013,0.0282118,0.585556,-0.034442,-0.0477592,-0.0226999,-0.000440471,0.0195257,0.0634913,-0.0119396,-0.0345496,0.223086
1413393244005760512,-0.260444,2.8366,0.612442,-0.00424114,0.810471,0.0286461,0.585063,-0.042637,-0.0367755,-0.0184971,-0.000441473,0.0195398,0.0635045,-0.0112236,-0.0351667,0.224146
1413393244055760384,-0.262989,2.83494,0.612366,-0.00282016,0.810223,0.0294168,0.585376,-0.0522359,-0.0254687,0.000796015,-0.000428549,0.0195697,0.0635237,-0.0105485,-0.0353023,0.225987
1413393244105760512,-0.266191,2.83378,0.612698,-0.00186319,0.810502,0.0300456,0.584961,-0.0663886,-0.0100634,0.0223593,-0.000437208,0.0195784,0.0635522,-0.00996057,-0.0371023,0.2285
1413393244155760384,-0.269965,2.83366,0.613401,-0.00143461,0.810745,0.0314329,0.584554,-0.084444,0.00596445,0.00369272,-0.000440681,0.0195848,0.0635654,-0.0102472,-0.0366784,0.229463
1413393244205760512,-0.274421,2.83468,0.613958,-0.00357993,0.810643,0.0336795,0.584561,-0.0928028,0.0332569,0.00743064,-0.000435232,0.0195999,0.0635854,-0.0106382,-0.0361749,0.229779
1413393244255760384,-0.279444,2.83674,0.615119,-0.00577322,0.811068,0.0383103,0.583667,-0.105533,0.045973,0.0117727,-0.000439927,0.0196079,0.0636074,-0.0115421,-0.0385365,0.228651
1413393244305760512,-0.28504,2.83931,0.615756,-0.00890917,0.811547,0.0440223,0.582558,-0.114363,0.0634568,0.0223524,-0.000433257,0.0196081,0.0636251,-0.0122884,-0.0381991,0.229512
1413393244355760384,-0.290983,2.84267,0.616214,-0.0136936,0.811911,0.0506629,0.581418,-0.118512,0.0908833,0.00695586,-0.000435731,0.0196165,0.0636465,-0.0127131,-0.037561,0.230339
1413393244405760512,-0.297083,2.84686,0.615753,-0.0187334,0.810904,0.0560503,0.582188,-0.121726,0.085205,-0.0304,-0.000444893,0.0196043,0.0636658,-0.0136958,-0.035779,0.230728
1413393244455760384,-0.303741,2.85141,0.613699,-0.0243678,0.809384,0.0600043,0.583698,-0.138004,0.100883,-0.0712598,-0.000444359,0.019617,0.0636934,-0.0153323,-0.0336924,0.232324
1413393244505760512,-0.311063,2.8567,0.608632,-0.0301041,0.808592,0.0634137,0.584168,-0.151301,0.110106,-0.131445,-0.000445857,0.0196252,0.0637117,-0.0160025,-0.0335647,0.232404
1413393244555760384,-0.31912,2.86178,0.600211,-0.0353186,0.807531,0.0656802,0.585092,-0.166281,0.0938564,-0.194749,-0.000446013,0.019628,0.0637404,-0.0168776,-0.0334692,0.233005
1413393244605760512,-0.327486,2.86667,0.58958,-0.0398715,0.807736,0.067878,0.584266,-0.169252,0.102116,-0.224724,-0.000449829,0.0196477,0.0637625,-0.0179035,-0.031723,0.235027
1413393244655760384,-0.336123,2.87171,0.579156,-0.044169,0.807986,0.0696421,0.583402,-0.164187,0.101798,-0.190495,-0.000450676,0.0196341,0.0637899,-0.0185285,-0.0292892,0.236613
1413393244705760512,-0.34493,2.87676,0.572464,-0.0472893,0.807308,0.0715326,0.583867,-0.201419,0.0938249,-0.112824,-0.000453216,0.0196522,0.0638036,-0.0181852,-0.0272265,0.238825
1413393244755760384,-0.355732,2.8813,0.566664,-0.0522781,0.808071,0.0708291,0.58247,-0.21934,0.0881162,-0.0912053,-0.000455839,0.019656,0.0638174,-0.0159444,-0.0264746,0.240724
1413393244805760512,-0.366953,2.88561,0.564208,-0.0575057,0.808041,0.0694245,0.582189,-0.224097,0.0873847,-0.0166484,-0.000457956,0.0196665,0.0638418,-0.0125409,-0.0258049,0.243401
1413393244855760384,-0.378658,2.88989,0.565369,-0.0611706,0.80883,0.0685076,0.580827,-0.244684,0.0835996,0.0729107,-0.00044609,0.0196786,0.0638582,-0.00868401,-0.0248808,0.245736
1413393244905760512,-0.390032,2.89394,0.571401,-0.0636813,0.808849,0.0673157,0.580669,-0.221203,0.0645647,0.158134,-0.00044236,0.0196994,0.0638903,-0.00565175,-0.0264413,0.248485
1413393244955760384,-0.401157,2.8969,0.58108,-0.063971,0.808722,0.067473,0.580797,-0.243228,0.0463853,0.223264,-0.000448755,0.0197055,0.0639205,-0.0017148,-0.026064,0.250874
1413393245005760512,-0.413617,2.89778,0.589762,-0.0611583,0.810472,0.0690618,0.578468,-0.254281,0.0209042,0.20785,-0.000394546,0.0195663,0.0640066,0.0125937,-0.0261228,0.258509
1413393245055760384,-0.426632,2.8985,0.599182,-0.0588166,0.812864,0.0697362,0.575264,-0.265476,0.00491797,0.173513,-0.0004141,0.0196383,0.0639646,0.00885381,-0.0339129,0.26295
1413393245105760512,-0.439935,2.89846,0.606711,-0.0560827,0.815578,0.0712063,0.571505,-0.264526,-0.00268462,0.117725,-0.000420211,0.0196651,0.0639876,0.00957209,-0.0352803,0.263558
1413393245155760384,-0.452765,2.8978,0.611462,-0.0544854,0.818627,0.071253,0.567278,-0.254621,-0.0158345,0.0666468,-0.000419195,0.0196874,0.0639806,0.0111514,-0.0355715,0.263797
1413393245205760512,-0.465391,2.89677,0.613679,-0.0525545,0.821675,0.0716533,0.562987,-0.249013,-0.020736,0.0203075,-0.000421773,0.0196818,0.0640227,0.0134281,-0.0378146,0.264883
1413393245255760384,-0.477817,2.89556,0.613387,-0.0502973,0.822941,0.0727181,0.561204,-0.243295,-0.0273265,-0.0360193,-0.000430362,0.019677,0.0640465,0.0147523,-0.038136,0.265783
1413393245305760512,-0.489541,2.89432,0.610126,-0.0481523,0.823708,0.0736411,0.560147,-0.227477,-0.0223205,-0.0926906,-0.00043366,0.0197019,0.0640632,0.0152426,-0.0388932,0.265998
1413393245355760384,-0.500601,2.8932,0.604423,-0.0456055,0.823233,0.0751834,0.560852,-0.215875,-0.012843,-0.133111,-0.000429217,0.0197073,0.0640769,0.0166128,-0.0400395,0.265787
1413393245405760512,-0.511028,2.89258,0.597073,-0.0435627,0.822383,0.0761182,0.562134,-0.193325,-0.0180837,-0.165545,-0.000427857,0.0197007,0.0640959,0.0180416,-0.0421824,0.265471
1413393245455760384,-0.520678,2.89189,0.588077,-0.0409878,0.821028,0.0775262,0.564113,-0.191831,-0.0147522,-0.205966,-0.000440606,0.0197212,0.0641245,0.0201954,-0.0452105,0.266564
1413393245505760512,-0.530281,2.89119,0.576834,-0.0389185,0.819653,0.0787806,0.566081,-0.183031,-0.00769361,-0.231033,-0.000412984,0.0197347,0.0641823,0.0233567,-0.0444847,0.267883
1413393245555760384,-0.538678,2.89069,0.564419,-0.0365727,0.817988,0.0798061,0.568497,-0.172745,-0.00933445,-0.226602,-0.00046895,0.0197947,0.0640922,0.0250764,-0.0527816,0.275271
1413393245605760512,-0.527814,2.8665,0.511373,-0.043712,0.82599,0.0707326,0.557519,-0.177303,0.0106846,-0.217033,-0.000581886,0.0197545,0.0633611,0.131868,0.230344,0.561184
1413393245655760384,-0.536586,2.867,0.524245,-0.0414854,0.826712,0.0707988,0.556609,-0.188767,0.0278816,-0.209062,-0.000583266,0.0198653,0.0632658,0.162362,0.238653,0.632122
1413393245705760512,-0.545747,2.86857,0.514576,-0.0386162,0.825942,0.0714437,0.557875,-0.187603,0.0372067,-0.189212,-0.000594427,0.0198806,0.0632979,0.162601,0.238728,0.635794
1413393245755760384,-0.555239,2.87082,0.505468,-0.0365524,0.826419,0.0708576,0.557382,-0.190289,0.0523711,-0.178239,-0.000586235,0.0198844,0.0633046,0.162511,0.238533,0.636251
1413393245805760512,-0.564655,2.87395,0.496962,-0.0353649,0.827078,0.069321,0.556675,-0.189871,0.07212,-0.16066,-0.000590273,0.0198915,0.0633229,0.162902,0.238972,0.636505
