#timestamp, p_RS_R_x [m], p_RS_R_y [m], p_RS_R_z [m], q_RS_w [], q_RS_x [], q_RS_y [], q_RS_z [], v_RS_R_x [m s^-1], v_RS_R_y [m s^-1], v_RS_R_z [m s^-1], b_w_RS_S_x [rad s^-1], b_w_RS_S_y [rad s^-1], b_w_RS_S_z [rad s^-1], b_a_RS_S_x [m s^-2], b_a_RS_S_y [m s^-2], b_a_RS_S_z [m s^-2]
1413393212255760384,-1.07612,0.492468,1.32994,0.602649,-0.00187059,-0.797997,0.00354845,-0.00183672,0.00462236,0.0019466,-0.000256773,0.00305735,0.0104721,-0.000502796,1.83814e-05,0.000132658
1413393212305760512,-1.07622,0.492535,1.33001,0.602648,0.00300334,-0.797969,0.00722525,-0.00107286,0.000534695,0.00112933,-0.000247287,0.00314784,0.0108002,-0.00143233,5.64003e-05,0.000361784
1413393212355760384,-1.07379,0.492995,1.33013,0.602113,0.0263623,-0.797591,0.0247991,-0.00222058,-0.00141845,0.00146078,-0.000249681,0.00322858,0.0111102,-0.0021688,0.000173943,0.000476337
1413393212405760512,-1.07067,0.486264,1.33009,0.602573,0.0108419,-0.797883,0.0131157,-0.00275364,0.000469205,-0.000441975,-0.000260364,0.00331238,0.0114052,-0.00302943,0.000107709,0.000564999
1413393212455760384,-1.06423,0.481921,1.3305,0.602616,0.00964942,-0.797878,0.0123456,-0.00135993,-0.00434969,5.58542e-05,-0.000271172,0.00338652,0.0117157,-0.00391215,6.75601e-05,0.000785601
1413393212505760512,-1.06944,0.483946,1.33071,0.602581,0.00806254,-0.79794,0.0110575,-0.0015169,-0.00362813,0.00131205,-0.000272222,0.00347761,0.0120166,-0.00486511,0.000259892,0.00149126
1413393212555760384,-1.06915,0.484049,1.33004,0.602586,0.00774855,-0.797944,0.0107417,-0.00220079,-0.00693985,-0.00267927,-0.000233707,0.00355138,0.0123056,-0.00566951,0.000127941,0.00183661
1413393212605760512,-1.08246,0.495837,1.3308,0.602598,0.020188,-0.797532,0.0202893,-0.00254756,0.000340391,-0.00108122,-0.00028339,0.00360342,0.0126183,-0.00638616,1.44512e-05,0.000271443
1413393212655760384,-1.08406,0.495181,1.32925,0.602679,0.0145797,-0.797696,0.0157444,-0.00254977,-0.00173329,-0.000401309,-0.000294166,0.00371015,0.012939,-0.00773068,-0.000729832,0.000829286
1413393212705760512,-1.08297,0.494173,1.32942,0.602649,0.0154194,-0.797683,0.0167098,0.000961228,-0.00319103,0.000771804,-0.000281073,0.00378582,0.0132203,-0.00856366,-0.000537082,0.000900944
1413393212755760384,-1.08618,0.49806,1.32976,0.602794,0.0164484,-0.797549,0.0169116,0.000562329,0.00156336,0.0020319,-0.000281609,0.00387635,0.0135318,-0.0100177,-0.00151846,-0.00103265
1413393212805760512,-1.06498,0.476462,1.3296,0.603034,-0.000963239,-0.797707,0.00352956,4.76991e-06,-0.00159591,0.0017816,-0.000316703,0.00397817,0.0138019,-0.0114611,-0.00487332,-0.000939297
1413393212855760384,-1.06225,0.472296,1.33031,0.603178,0.000382954,-0.797595,0.00427395,0.000112108,0.0018947,0.00195685,-0.000314168,0.00406057,0.01409,-0.0124134,-0.00688493,-0.00310698
1413393212905760512,-1.06947,0.478891,1.3303,0.603162,0.00317214,-0.797586,0.00650521,-0.002196,0.00111265,0.00039102,-0.000339996,0.00413794,0.014378,-0.0130454,-0.0071241,-0.00218015
1413393212955760384,-1.07058,0.480065,1.33025,0.603138,0.00331441,-0.797602,0.00670097,-0.00307732,-0.00264359,-0.00165471,-0.000359815,0.00421144,0.0146367,-0.0137931,-0.0074966,-0.00193931
1413393213005760512,-1.07092,0.480439,1.33026,0.603193,0.00339867,-0.79756,0.00669851,-0.00129932,0.000637922,-0.00130852,-0.000372106,0.00430268,0.0149202,-0.0150118,-0.00761615,-0.0017986
1413393213055760384,-1.07102,0.480939,1.3303,0.603277,0.00282658,-0.797502,0.00638893,-0.00118593,-0.000708788,-0.00205761,-0.000382142,0.00438136,0.0151977,-0.0160574,-0.00829678,-0.00256551
1413393213105760512,-1.08464,0.495437,1.3294,0.602776,0.0113643,-0.797717,0.0134597,-0.0012912,-0.00160022,-0.00511091,-0.000378642,0.00445474,0.0154824,-0.0152688,-0.00190472,0.0024395
1413393213155760384,-1.08478,0.495384,1.32928,0.602745,0.0113958,-0.79774,0.0134327,-0.000406325,0.000238282,-0.00155227,-0.000380708,0.00453192,0.0157607,-0.0162293,-0.00190601,0.00194189
1413393213205760512,-1.08463,0.495109,1.3292,0.602778,0.0113108,-0.797717,0.0134053,0.000720889,0.00138793,-0.000279896,-0.00037996,0.00461278,0.0160343,-0.0169587,-0.00183852,0.00171924
1413393213255760384,-1.08484,0.495498,1.3292,0.602775,0.0112634,-0.797721,0.0132747,0.00211472,0.000759372,0.00256717,-0.000386322,0.00469556,0.0163065,-0.0178104,-0.00210139,0.00167589
1413393213305760512,-1.08475,0.495489,1.32918,0.602814,0.0112405,-0.797694,0.0132015,0.00198622,-0.000394902,0.00277868,-0.000389586,0.00476515,0.0165683,-0.0177413,-0.00222694,0.00167426
1413393213355760384,-1.08464,0.49572,1.32932,0.602827,0.0109572,-0.797685,0.0133621,0.00366099,0.00438745,0.000939021,-0.000401181,0.00483434,0.0168378,-0.0179402,-0.00226697,0.001017
1413393213405760512,-1.07099,0.48008,1.32836,0.603467,0.000959472,-0.797375,0.00454114,0.00381409,0.00444979,0.00397533,-0.000427021,0.00493031,0.0171016,-0.0214705,-0.0135109,-0.00743594
1413393213455760384,-1.06463,0.471922,1.32742,0.603946,-0.00302537,-0.797019,0.00109691,0.00169875,0.000422866,0.00172203,-0.000429175,0.00500496,0.017362,-0.0239006,-0.0199054,-0.0170265
1413393213505760512,-1.06333,0.469577,1.32598,0.604083,-0.0035768,-0.796913,0.000519892,-0.000995343,-0.000134644,0.00185878,-0.000428253,0.00509287,0.0176225,-0.025314,-0.0203051,-0.02128
1413393213555760384,-1.07168,0.479918,1.33016,0.603785,0.000406076,-0.79714,0.00354109,-0.00118475,0.000548558,0.00254814,-0.000441625,0.00515516,0.0178733,-0.0237902,-0.0202877,-0.0163383
1413393213605760512,-1.07205,0.480353,1.33019,0.603778,0.000458961,-0.797144,0.00368214,-0.000541972,0.00129891,0.00150213,-0.000459229,0.00522779,0.0181395,-0.023775,-0.0205411,-0.0165475
1413393213655760384,-1.07251,0.480944,1.33013,0.603794,0.000655351,-0.797131,0.00374736,-0.000762222,-0.000766522,-0.000345378,-0.000474939,0.00530182,0.0184,-0.0246612,-0.0211379,-0.0158122
1413393213705760512,-1.07215,0.480307,1.33006,0.603798,0.000435787,-0.797129,0.00368297,-0.000787655,-0.00286242,-0.000836182,-0.000460547,0.00537638,0.0186338,-0.0252413,-0.0208441,-0.0168318
1413393213755760384,-1.07263,0.480858,1.32998,0.603777,0.000484597,-0.797145,0.0036816,-4.36681e-05,-0.0011835,-0.00254936,-0.000467181,0.0054496,0.0188741,-0.0258349,-0.0215339,-0.0162526
1413393213805760512,-1.07237,0.480304,1.32985,0.603803,0.000336265,-0.797126,0.00355384,-0.000264809,-0.000395013,-0.00539532,-0.000465395,0.00552534,0.0191139,-0.026362,-0.0212597,-0.0167557
1413393213855760384,-1.0721,0.480013,1.32963,0.603868,9.28662e-05,-0.797077,0.00343341,-0.000807004,-0.00113358,-0.00348945,-0.000470529,0.0055885,0.019358,-0.026532,-0.0214244,-0.0167137
1413393213905760512,-1.07213,0.47993,1.32948,0.603838,-9.18862e-07,-0.797101,0.00336598,3.44301e-05,-0.00336001,-0.0036653,-0.000492628,0.00566147,0.0196059,-0.0269864,-0.0223428,-0.016775
1413393213955760384,-1.07197,0.479632,1.32932,0.603728,9.32001e-05,-0.797184,0.00339173,0.000875975,-0.00414241,-0.000776603,-0.000495268,0.00573353,0.0198486,-0.0274671,-0.0230001,-0.0163613
1413393214005760512,-1.07126,0.478826,1.32944,0.603622,-6.26455e-05,-0.797264,0.00329893,0.000560081,0.00951775,0.00279944,-0.000475518,0.0058021,0.0200885,-0.028155,-0.022448,-0.0177702
1413393214055760384,-1.07059,0.478367,1.32929,0.60379,-0.000441478,-0.797138,0.00289782,0.00186969,0.00608602,0.00081381,-0.000484658,0.00587235,0.0203265,-0.0288319,-0.0228099,-0.018488
1413393214105760512,-1.06968,0.477463,1.32918,0.603554,-0.000719453,-0.797317,0.00270766,-0.00067011,0.00150358,0.00228271,-0.000490163,0.0059366,0.020559,-0.0289506,-0.0237049,-0.0190767
1413393214155760384,-1.06853,0.476344,1.32908,0.603742,-0.00105297,-0.797176,0.00239897,0.00200531,-0.000403864,0.00122106,-0.00048132,0.00598737,0.0207909,-0.0285798,-0.0232807,-0.0194196
1413393214205760512,-1.06705,0.475044,1.32924,0.603643,-0.0015536,-0.797251,0.00219087,0.000417939,0.00282399,0.000767568,-0.000477151,0.00607519,0.021026,-0.0285688,-0.0232908,-0.018555
1413393214255760384,-1.06619,0.474414,1.3293,0.603696,-0.00163138,-0.797211,0.00181472,0.00108519,0.00266023,0.00038752,-0.00047218,0.0061163,0.0212308,-0.0280055,-0.0224048,-0.0193678
1413393214305760512,-1.06529,0.474005,1.32944,0.603672,-0.00217121,-0.797228,0.00167608,0.00280333,-0.000453483,-0.00139625,-0.000480556,0.0061894,0.0214716,-0.0297032,-0.0228449,-0.0190187
1413393214355760384,-1.06391,0.472934,1.32999,0.603814,-0.00250425,-0.79712,0.00147501,0.00272139,0.00410157,0.000335873,-0.000486527,0.0062729,0.021729,-0.0317115,-0.0236378,-0.0205614
1413393214405760512,-1.06339,0.472546,1.3304,0.603843,-0.00260725,-0.797098,0.0012973,0.00231465,0.00128396,-0.000312687,-0.000488437,0.00633154,0.0219568,-0.0325278,-0.0241947,-0.0226012
1413393214455760384,-1.06299,0.472311,1.3305,0.603938,-0.00269884,-0.797026,0.00139722,0.000594694,0.00149642,0.000759064,-0.000502152,0.00641094,0.0221751,-0.0327154,-0.0249235,-0.0238437
1413393214505760512,-1.06263,0.471809,1.33054,0.603917,-0.00267227,-0.797042,0.00121836,-0.00064719,0.000111306,0.0024266,-0.000511592,0.00648283,0.0223754,-0.0334505,-0.0243068,-0.0248999
1413393214555760384,-1.0623,0.471277,1.33054,0.603972,-0.0027364,-0.797,0.00134802,-0.000762617,-0.00152135,0.000895629,-0.000514782,0.00655097,0.0225991,-0.0333083,-0.0250538,-0.0249237
1413393214605760512,-1.0621,0.470994,1.33019,0.604023,-0.0027842,-0.796962,0.00113502,-0.00257047,0.000628155,0.000306522,-0.000519767,0.00662826,0.022852,-0.0343772,-0.0259978,-0.0256286
1413393214655760384,-1.06191,0.470642,1.33007,0.604089,-0.00293573,-0.796911,0.00106975,0.000115847,-0.00161334,0.00123686,-0.000536037,0.00668673,0.0230229,-0.0339876,-0.0250787,-0.0277215
1413393214705760512,-1.06138,0.470022,1.33004,0.604213,-0.00306429,-0.796816,0.00100915,-0.00115154,-1.6078e-05,-0.00162839,-0.000549972,0.00676075,0.0232578,-0.0357896,-0.0265697,-0.0279123
1413393214755760384,-1.0607,0.46924,1.33015,0.604276,-0.00315168,-0.796769,0.000817481,0.000240959,-0.00143885,-0.00074161,-0.000550443,0.00680367,0.0234486,-0.0355751,-0.0255196,-0.0308142
1413393214805760512,-1.0612,0.469512,1.33003,0.604287,-0.00287499,-0.796761,0.00113217,0.000647695,-0.000889685,-0.000631104,-0.000556758,0.00684342,0.0236435,-0.0349949,-0.023856,-0.0319684
1413393214855760384,-1.0617,0.470412,1.33037,0.604275,-0.00222899,-0.796772,0.00155774,6.93574e-05,-0.000423458,-0.00109672,-0.000583949,0.00691998,0.0238654,-0.0362264,-0.024211,-0.0318214
1413393214905760512,-1.06312,0.47159,1.32972,0.604223,-0.00112652,-0.796811,0.00241148,-0.000124484,-0.00169743,-0.00122514,-0.000546525,0.00696287,0.0240582,-0.0353286,-0.0206504,-0.032199
1413393214955760384,-1.06793,0.476176,1.32933,0.604084,0.00138804,-0.796908,0.00440192,-0.000611312,-0.000661354,-0.000366512,-0.00056919,0.00700699,0.0242753,-0.0359839,-0.0210687,-0.0294745
1413393215005760512,-1.07529,0.483916,1.32984,0.603871,0.0047177,-0.797036,0.00717252,-0.00093958,2.04734e-06,9.72813e-05,-0.00057538,0.00708592,0.024497,-0.0367067,-0.0181399,-0.0239358
1413393215055760384,-1.07734,0.486093,1.32899,0.603502,0.00654956,-0.797289,0.00855968,-0.00232854,-0.00373349,0.00168478,-0.000564429,0.00710737,0.0246841,-0.0372891,-0.0128294,-0.020015
1413393215105760512,-1.07987,0.488717,1.32929,0.603328,0.00789128,-0.797395,0.00976036,-0.00276159,-0.00925471,-0.00376957,-0.000575481,0.00718324,0.0248687,-0.0358946,-0.0163332,-0.0189374
1413393215155760384,-1.06015,0.466305,1.33051,0.603807,-0.0025232,-0.797126,0.000960227,-0.00176094,-0.00345212,-0.00131337,-0.000560559,0.00726244,0.0250816,-0.0380794,-0.0273373,-0.0237874
1413393215205760512,-1.05891,0.464658,1.32962,0.60366,-0.00195396,-0.797239,0.00131039,-0.00228754,-0.00426218,-0.0034087,-0.000584555,0.00732287,0.0253088,-0.0380915,-0.0281889,-0.0214589
1413393215255760384,-1.06654,0.472507,1.32988,0.603474,0.00153732,-0.79737,0.00415246,-0.00208121,-0.00364578,-0.00455591,-0.000576125,0.00736832,0.0254925,-0.0368395,-0.0261821,-0.0161501
1413393215305760512,-1.0693,0.475063,1.32839,0.603266,0.00390404,-0.797508,0.00595012,-0.00374637,-0.00281939,-0.00457388,-0.000597128,0.00744166,0.0257228,-0.0377159,-0.0260806,-0.0100474
1413393215355760384,-1.07083,0.477121,1.3294,0.603165,0.00491589,-0.797572,0.00686948,-0.00239701,-0.00444198,-0.00479048,-0.000633789,0.0074968,0.0258757,-0.0388205,-0.0237701,-0.00720827
1413393215405760512,-1.08471,0.491536,1.32879,0.60255,0.0122763,-0.797885,0.0127772,-0.00279252,-0.00183869,-0.00248784,-0.000641258,0.00758123,0.0260516,-0.0369427,-0.0197134,0.00139375
1413393215455760384,-1.08496,0.49044,1.32804,0.602343,0.0126003,-0.798034,0.0129299,-0.00469776,-0.000908659,-0.000117216,-0.000670599,0.00757336,0.0262467,-0.0365217,-0.0180743,0.00336852
1413393215505760512,-1.0732,0.476702,1.32939,0.602817,0.00479754,-0.797838,0.00656359,-0.00315952,-0.00242443,-0.00208293,-0.000650808,0.00764175,0.0264464,-0.0408741,-0.0265055,-0.00668217
1413393215555760384,-1.08077,0.483854,1.32645,0.602267,0.00946302,-0.798173,0.0102558,-0.00631673,-0.00374807,0.000815518,-0.000673647,0.00772817,0.026597,-0.0383204,-0.0212184,0.00317756
1413393215605760512,-1.08526,0.487793,1.32567,0.602008,0.0113658,-0.798324,0.0116868,-0.00815204,-0.00535668,0.00411383,-0.000675164,0.00775878,0.0268019,-0.038141,-0.0185869,0.00810466
1413393215655760384,-1.0859,0.487211,1.32576,0.601694,0.0110402,-0.798566,0.0116235,-0.00791835,-0.00176554,0.00449322,-0.000705249,0.00782898,0.0269627,-0.0391486,-0.0233753,0.0137765
1413393215705760512,-1.08788,0.488246,1.32734,0.600875,0.0113773,-0.799172,0.0120246,-0.00427043,-0.0040451,-0.00201053,-0.000710521,0.00791634,0.0271648,-0.039132,-0.0201498,0.0182026
1413393215755760384,-1.08927,0.489136,1.32644,0.600051,0.0114309,-0.799792,0.0118909,-0.00159131,-0.000721899,-0.00361269,-0.000726877,0.00795545,0.0273267,-0.0368211,-0.0210481,0.0271498
1413393215805760512,-1.09166,0.490644,1.32736,0.599127,0.0116838,-0.800478,0.0120629,0.00237784,-0.00246711,0.0108987,-0.000732592,0.0079748,0.0274837,-0.0333881,-0.0182207,0.0381864
1413393215855760384,-1.09388,0.492366,1.32961,0.598191,0.0117995,-0.801174,0.0122455,-0.000742969,0.000878025,0.00825816,-0.000798927,0.00807155,0.0276618,-0.030563,-0.0187033,0.0555757
1413393215905760512,-1.09713,0.494684,1.33337,0.597346,0.0119238,-0.801793,0.012763,-0.000611297,0.000336451,0.0083409,-0.000782241,0.00808887,0.0278661,-0.0227043,-0.0113572,0.0727101
1413393215955760384,-1.10067,0.497228,1.33664,0.596333,0.0115655,-0.802541,0.0134522,0.00376845,0.00406582,0.00653752,-0.000759712,0.00812688,0.0280523,-0.0155754,-0.00280835,0.0934598
1413393216005760512,-1.10335,0.499262,1.33366,0.595332,0.0109796,-0.8033,0.0130059,0.00979744,0.00477593,0.00778824,-0.00077191,0.0081872,0.0281937,-0.00857322,0.00828938,0.117626
1413393216055760384,-1.10466,0.50009,1.33244,0.594684,0.0100847,-0.803805,0.0121141,0.002213,0.00567107,0.00374938,-0.000770972,0.00826591,0.0283909,-0.00461844,0.013612,0.13459
1413393216105760512,-1.10371,0.498418,1.33262,0.593641,0.00606042,-0.80464,0.0104367,0.00200052,0.00571805,-0.00642773,-0.000776464,0.00831822,0.028572,0.00196185,0.0312164,0.159628
1413393216155760384,-1.10465,0.498778,1.32696,0.592971,0.00440147,-0.805158,0.00931828,0.000416024,0.0038136,-0.00287975,-0.00080021,0.008352,0.0287442,0.00852369,0.0380285,0.185493
1413393216205760512,-1.10371,0.497737,1.32767,0.592178,0.00211703,-0.805763,0.00814655,-0.00230567,0.00656417,-0.00539228,-0.00077561,0.00843611,0.0289259,0.00964132,0.0468912,0.197563
1413393216255760384,-1.10303,0.496724,1.32871,0.590904,0.000679964,-0.806708,0.00740277,-0.0109548,0.00538692,0.000226459,-0.00079743,0.00842674,0.0290478,0.012082,0.0512583,0.205177
1413393216305760512,-1.10085,0.494206,1.32949,0.589665,-0.00145317,-0.807625,0.00602148,-0.0081818,-0.00295706,-0.00102047,-0.000822042,0.00850963,0.0292339,0.0121021,0.0514989,0.209931
1413393216355760384,-1.09528,0.489921,1.32833,0.58959,-0.00435694,-0.807679,0.00445831,-0.000823179,0.0024641,-0.00335034,-0.000821517,0.00853658,0.0293626,0.00917959,0.0525439,0.204089
1413393216405760512,-1.09532,0.488791,1.3317,0.588628,-0.00518398,-0.80838,0.00366758,-0.00139175,-0.0105265,-0.00676345,-0.000842292,0.00859572,0.0295591,0.0116067,0.0487218,0.217091
1413393216455760384,-1.09115,0.484775,1.33151,0.589117,-0.00648479,-0.808019,0.00216963,-0.00634882,-0.00574854,0.0112268,-0.000872384,0.00871818,0.0297173,0.00700939,0.0492725,0.208431
1413393216505760512,-1.0908,0.483632,1.3324,0.586872,-0.00760442,-0.809644,0.00103482,0.00130431,0.00474837,0.0118856,-0.000879915,0.00875665,0.0298795,0.0110878,0.0435449,0.222928
1413393216555760384,-1.09011,0.482721,1.33474,0.586038,-0.00859703,-0.810238,-0.000428707,0.000486662,0.00897911,-0.0209717,-0.000918799,0.00880324,0.0300089,0.0135588,0.0393019,0.226627
1413393216605760512,-1.08785,0.48072,1.33477,0.585426,-0.0109897,-0.810651,-0.00114972,0.000650759,0.0193079,-0.0140327,-0.000918501,0.00886659,0.030166,0.0140112,0.0367131,0.230825
1413393216655760384,-1.08158,0.476546,1.34283,0.587348,-0.0133359,-0.809217,-0.00338827,0.000714098,0.00786942,0.0217325,-0.000918297,0.00893538,0.0302947,0.00457004,0.0438474,0.20209
1413393216705760512,-1.07555,0.472676,1.34609,0.588856,-0.0146823,-0.808077,-0.00678188,0.018597,0.0206936,0.0346396,-0.000926021,0.00899493,0.0304296,0.000104142,0.0513393,0.180147
1413393216755760384,-1.07001,0.469836,1.35162,0.589922,-0.015712,-0.807238,-0.0106017,0.0116512,0.0187833,0.0469981,-0.000891658,0.00903385,0.0305535,-0.00447187,0.0623938,0.156668
1413393216805760512,-1.06584,0.468356,1.35173,0.591027,-0.0163409,-0.806372,-0.0135919,0.0166563,0.00827434,0.0866621,-0.000874972,0.00909052,0.0307105,-0.00777628,0.0651125,0.145308
1413393216855760384,-1.06,0.465656,1.34799,0.592573,-0.0173278,-0.805163,-0.0164035,0.0259364,0.00893912,0.0930258,-0.000934079,0.00911974,0.0309157,-0.0138687,0.0719496,0.131469
1413393216905760512,-1.05569,0.464366,1.35291,0.595976,-0.016248,-0.80265,-0.0173689,0.0385413,-0.00456779,0.129684,-0.000910899,0.00916508,0.0310942,-0.0255164,0.0795636,0.0940465
1413393216955760384,-1.04896,0.459431,1.35801,0.595617,-0.0182434,-0.802741,-0.0227041,0.0494924,-0.006385,0.145522,-0.000869409,0.0092058,0.0312814,-0.0233512,0.0806016,0.0998355
1413393217005760512,-1.04298,0.456065,1.37311,0.59523,-0.0189045,-0.802939,-0.0251568,0.0640928,-0.0157143,0.163586,-0.00091137,0.00924357,0.0314276,-0.0247316,0.083684,0.0917095
1413393217055760384,-1.03852,0.454899,1.36971,0.593355,-0.0196945,-0.804267,-0.0263965,0.0711189,-0.0379375,0.229185,-0.00082991,0.00927506,0.0315953,-0.0267818,0.0922281,0.0861086
1413393217105760512,-1.03178,0.449852,1.38872,0.592363,-0.0210945,-0.804925,-0.027518,0.0835625,-0.0429838,0.276417,-0.00083523,0.00931437,0.0317546,-0.0279961,0.0931593,0.0828706
1413393217155760384,-1.02609,0.447224,1.38778,0.591154,-0.0228162,-0.805755,-0.0278587,0.090016,-0.0650674,0.278094,-0.000849022,0.00938522,0.0319274,-0.0319575,0.0966388,0.0755887
1413393217205760512,-1.01614,0.439846,1.41523,0.590609,-0.0237364,-0.806118,-0.0281301,0.100213,-0.0796718,0.262983,-0.00083133,0.00941559,0.0320796,-0.0326691,0.0975011,0.0743877
1413393217255760384,-1.01062,0.435785,1.42866,0.591067,-0.0241637,-0.805731,-0.0292255,0.103477,-0.0890246,0.242212,-0.000852033,0.00946866,0.032229,-0.0344863,0.108784,0.0680034
1413393217305760512,-1.00354,0.428926,1.44838,0.590767,-0.024104,-0.805928,-0.0299035,0.111955,-0.106892,0.202049,-0.000883276,0.00953384,0.0324226,-0.0382569,0.115881,0.0646396
1413393217355760384,-1.00352,0.426243,1.45683,0.590159,-0.0240228,-0.806384,-0.0296728,0.121014,-0.126793,0.166633,-0.000875395,0.00960679,0.0325296,-0.0395581,0.118127,0.0592389
1413393217405760512,-0.995961,0.420813,1.44948,0.59001,-0.0234422,-0.806497,-0.0300282,0.137535,-0.134283,0.153555,-0.000865314,0.00965471,0.0326627,-0.045985,0.116921,0.0392447
1413393217455760384,-0.984992,0.411771,1.44749,0.589672,-0.023505,-0.806749,-0.0298446,0.146357,-0.159533,0.137797,-0.000905056,0.00971173,0.0328247,-0.0511836,0.116604,0.0293549
1413393217505760512,-0.9742,0.401485,1.46683,0.590645,-0.0214543,-0.806139,-0.0286145,0.147379,-0.181258,0.126951,-0.000890958,0.00974411,0.0329717,-0.062139,0.123393,-0.00188258
1413393217555760384,-0.968255,0.392642,1.47825,0.591011,-0.0214226,-0.805867,-0.028751,0.167161,-0.182732,0.104772,-0.000921974,0.00979516,0.0331071,-0.0651147,0.121955,-0.00939607
1413393217605760512,-0.959757,0.384685,1.47664,0.591584,-0.0198864,-0.805497,-0.0284154,0.166301,-0.215002,0.0880059,-0.000956015,0.00980832,0.0332608,-0.0671392,0.120899,-0.0197911
1413393217655760384,-0.951174,0.373984,1.48055,0.591666,-0.0190598,-0.805474,-0.0279102,0.176417,-0.218723,0.0969273,-0.000891728,0.00983599,0.0334142,-0.0671781,0.124001,-0.0267864
1413393217705760512,-0.942041,0.361884,1.48576,0.591727,-0.0195839,-0.805396,-0.0285087,0.180599,-0.2359,0.141987,-0.000928082,0.00983101,0.0334818,-0.0639593,0.124398,-0.0221611
1413393217755760384,-0.932571,0.348919,1.49338,0.592096,-0.0194594,-0.80514,-0.0281711,0.188717,-0.263503,0.188861,-0.000917188,0.00985238,0.0336577,-0.063976,0.124346,-0.0209086
1413393217805760512,-0.922442,0.335356,1.50255,0.592129,-0.019587,-0.805127,-0.0277554,0.199067,-0.267445,0.222373,-0.000916047,0.00991568,0.0338265,-0.0658014,0.124349,-0.0244777
1413393217855760384,-0.911861,0.320881,1.51439,0.592213,-0.0203768,-0.805066,-0.0271801,0.210481,-0.280763,0.247063,-0.000899143,0.00992023,0.0339541,-0.0636835,0.125307,-0.0266185
1413393217905760512,-0.901203,0.305642,1.52748,0.592359,-0.0203043,-0.804979,-0.0265976,0.21159,-0.30786,0.284503,-0.00090753,0.00999162,0.0341276,-0.066643,0.123591,-0.0288498
1413393217955760384,-0.890046,0.289561,1.54261,0.593141,-0.0204805,-0.8044,-0.0265449,0.221969,-0.310361,0.302355,-0.000891635,0.0100734,0.0342865,-0.0685093,0.123335,-0.0342582
1413393218005760512,-0.878621,0.273046,1.55711,0.5929,-0.0214993,-0.80459,-0.0253325,0.227519,-0.332241,0.276765,-0.000888768,0.0100884,0.0344209,-0.0667225,0.1221,-0.0369855
1413393218055760384,-0.866814,0.255423,1.56975,0.593558,-0.023409,-0.804138,-0.022437,0.230315,-0.345477,0.221413,-0.00090836,0.010158,0.0345457,-0.0662909,0.11971,-0.0415356
1413393218105760512,-0.855005,0.237707,1.5803,0.593226,-0.026108,-0.804383,-0.019235,0.235499,-0.337491,0.189392,-0.000903793,0.0101646,0.0346694,-0.0644987,0.118063,-0.0442344
1413393218155760384,-0.8428,0.219698,1.58807,0.59339,-0.0299689,-0.804235,-0.014023,0.238516,-0.356888,0.135687,-0.000900098,0.010202,0.0348088,-0.0646292,0.118564,-0.0455588
1413393218205760512,-0.830023,0.201252,1.59403,0.59399,-0.0336509,-0.80373,-0.00787893,0.249958,-0.351978,0.083291,-0.000883721,0.0102396,0.0349367,-0.0658611,0.118983,-0.0488636
1413393218255760384,-0.816761,0.183689,1.59755,0.593322,-0.0383084,-0.804051,-0.00191728,0.26729,-0.319926,0.034149,-0.000845344,0.0102486,0.0350968,-0.0668339,0.118987,-0.051001
1413393218305760512,-0.803499,0.167087,1.59798,0.592167,-0.0417779,-0.804728,0.00270633,0.256935,-0.323511,-0.00128039,-0.000871915,0.0103063,0.0352396,-0.0694275,0.116014,-0.048834
1413393218355760384,-0.790235,0.151418,1.59675,0.592049,-0.041493,-0.804828,0.00299418,0.262176,-0.29882,-0.0405156,-0.000875636,0.0103195,0.0353555,-0.0711126,0.11621,-0.0508946
1413393218405760512,-0.776835,0.136756,1.59434,0.592864,-0.0393773,-0.804338,-0.00172466,0.264787,-0.265312,-0.0638018,-0.00087819,0.0103631,0.0354891,-0.0744598,0.115075,-0.0538623
1413393218455760384,-0.763421,0.122792,1.59003,0.592996,-0.0361944,-0.804361,-0.00700767,0.262771,-0.273773,-0.0896214,-0.000878059,0.0104303,0.0356469,-0.0782746,0.113613,-0.0546377
1413393218505760512,-0.749771,0.10948,1.58466,0.593744,-0.0325833,-0.803899,-0.0123459,0.270685,-0.25628,-0.0800547,-0.00089678,0.0104488,0.0357551,-0.0784347,0.111604,-0.0574196
1413393218555760384,-0.735937,0.0968126,1.57885,0.594153,-0.0297399,-0.803602,-0.0179651,0.282445,-0.236645,-0.0748976,-0.000912982,0.0104389,0.0358022,-0.0748947,0.108556,-0.0571509
1413393218605760512,-0.721565,0.0838054,1.57453,0.595215,-0.027039,-0.802824,-0.0215055,0.286491,-0.262859,-0.064214,-0.00092229,0.0105381,0.0359952,-0.0789906,0.107595,-0.0630745
1413393218655760384,-0.706667,0.0706999,1.57176,0.595968,-0.0251561,-0.802261,-0.0238155,0.300512,-0.253047,-0.0621509,-0.000910614,0.0105625,0.0361148,-0.0795379,0.1094,-0.0687461
1413393218705760512,-0.691189,0.0571576,1.56902,0.596138,-0.0256949,-0.802106,-0.0242253,0.30971,-0.249569,-0.0471583,-0.000932491,0.0106171,0.0362624,-0.0826392,0.108958,-0.0736385
1413393218755760384,-0.675432,0.0433434,1.5668,0.594679,-0.0245704,-0.803197,-0.0250503,0.312402,-0.278679,-0.0414778,-0.00094232,0.0106779,0.0363615,-0.0823744,0.109296,-0.07605
1413393218805760512,-0.659228,0.0292744,1.56499,0.590606,-0.0252997,-0.80622,-0.0235357,0.3238,-0.267398,-0.0377358,-0.000923608,0.0107089,0.0364858,-0.0850095,0.109747,-0.0834965
1413393218855760384,-0.642881,0.0150195,1.56281,0.584047,-0.0289619,-0.810965,-0.0196792,0.320044,-0.268158,-0.0288069,-0.0009444,0.0107548,0.0366428,-0.0848507,0.113556,-0.0842934
1413393218905760512,-0.627085,0.000859068,1.56211,0.577295,-0.0312152,-0.815787,-0.0157604,0.303253,-0.281861,-0.0275854,-0.000918763,0.0107735,0.0367329,-0.0826697,0.115686,-0.0924337
1413393218955760384,-0.612248,-0.0125905,1.56156,0.57152,-0.0330825,-0.819819,-0.0129443,0.284795,-0.258597,-0.00465613,-0.000919755,0.0108145,0.036886,-0.083259,0.117993,-0.091445
1413393219005760512,-0.598317,-0.0256496,1.56085,0.567918,-0.0350336,-0.822262,-0.011293,0.256158,-0.249061,0.0134917,-0.000947765,0.0108483,0.0370147,-0.0821067,0.11799,-0.0939981
1413393219055760384,-0.586167,-0.0388323,1.55793,0.56617,-0.0359414,-0.823454,-0.00915564,0.224637,-0.250708,0.0327889,-0.000950788,0.0108648,0.0370868,-0.0819395,0.11908,-0.0969919
1413393219105760512,-0.575367,-0.0514687,1.55667,0.566619,-0.0354954,-0.823163,-0.00927401,0.205734,-0.232261,0.061839,-0.00093819,0.010878,0.0371954,-0.0823976,0.120186,-0.101465
1413393219155760384,-0.565603,-0.0633016,1.56109,0.568008,-0.035958,-0.822196,-0.00826852,0.185291,-0.222647,0.0707535,-0.000963193,0.0108892,0.0373381,-0.0839854,0.121809,-0.101651
1413393219205760512,-0.556841,-0.0751915,1.5655,0.568943,-0.0354851,-0.821573,-0.00794799,0.165948,-0.221053,0.088423,-0.000970419,0.0109341,0.0374138,-0.0878043,0.119384,-0.107919
1413393219255760384,-0.548944,-0.0866093,1.57172,0.570727,-0.0348132,-0.820367,-0.00755639,0.148951,-0.208671,0.111475,-0.000955487,0.0109861,0.0375301,-0.0924129,0.118243,-0.113188
1413393219305760512,-0.542168,-0.0972763,1.58236,0.572076,-0.0340919,-0.819461,-0.00722211,0.118992,-0.189039,0.1188,-0.00100895,0.0110556,0.03767,-0.0956607,0.120994,-0.114836
1413393219355760384,-0.537054,-0.107441,1.58869,0.57253,-0.0336062,-0.819167,-0.00679512,0.0800538,-0.183665,0.125806,-0.00097459,0.0110519,0.0377615,-0.0978775,0.117862,-0.120814
1413393219405760512,-0.533873,-0.117151,1.59488,0.573148,-0.0337088,-0.818741,-0.00538985,0.0496193,-0.167176,0.11706,-0.000972271,0.0111191,0.0378856,-0.101542,0.11589,-0.122685
1413393219455760384,-0.532275,-0.126126,1.59616,0.574486,-0.0334835,-0.817811,-0.00557006,0.00898382,-0.148063,0.0688119,-0.00100984,0.0111622,0.0380119,-0.104164,0.115515,-0.12519
1413393219505760512,-0.532071,-0.140216,1.58282,0.576033,-0.0339662,-0.816692,-0.00687345,-0.018919,-0.143164,0.0245722,-0.000959515,0.0111911,0.0381184,-0.111442,0.104367,-0.137282
1413393219555760384,-0.530864,-0.163748,1.57045,0.578901,-0.0366182,-0.814519,-0.00961816,-0.0411922,-0.132023,-0.00696001,-0.000911543,0.011169,0.0382187,-0.122638,0.0930247,-0.165488
1413393219605760512,-0.532211,-0.174833,1.56734,0.580987,-0.0369605,-0.813001,-0.0108513,-0.0475414,-0.120676,-0.00724478,-0.000924413,0.0112111,0.038345,-0.128249,0.088626,-0.176221
1413393219655760384,-0.533914,-0.187206,1.56758,0.583692,-0.0378599,-0.811007,-0.0117253,-0.0570055,-0.113702,0.0296406,-0.000896788,0.0112175,0.0384414,-0.133636,0.0830695,-0.18974
1413393219705760512,-0.534993,-0.201115,1.57307,0.587157,-0.0389048,-0.808413,-0.0142565,-0.0670647,-0.0968458,0.0928133,-0.000885495,0.0112277,0.0385221,-0.139999,0.0781361,-0.204668
1413393219755760384,-0.533443,-0.220727,1.57477,0.590944,-0.0401784,-0.805515,-0.0177988,-0.0850962,-0.0871415,0.166064,-0.000896,0.0112765,0.0386354,-0.150167,0.0723665,-0.22855
1413393219805760512,-0.544044,-0.229619,1.577,0.594248,-0.0400901,-0.802972,-0.0223499,-0.066984,-0.0779373,0.216968,-0.000866407,0.0113121,0.0387654,-0.153238,0.0625443,-0.239953
1413393219855760384,-0.557179,-0.165275,1.62886,0.590631,-0.0235558,-0.806533,-0.0102259,-0.0611907,-0.0694716,0.32468,-0.00104766,0.0114764,0.0388344,-0.118002,0.0767265,-0.127875
1413393219905760512,-0.549107,-0.233927,1.61319,0.594403,-0.0372218,-0.802945,-0.024059,-0.0640156,-0.0675801,0.340363,-0.000940955,0.0114123,0.0389573,-0.135374,0.0588831,-0.186823
1413393219955760384,-0.552008,-0.229271,1.64637,0.594848,-0.0333819,-0.802778,-0.0242818,-0.0684337,-0.0616978,0.337312,-0.000933802,0.0114667,0.0390416,-0.12929,0.0611088,-0.169851
1413393220005760512,-0.553275,-0.22943,1.62879,0.596006,-0.0315186,-0.802024,-0.0232722,-0.066769,-0.0643665,0.296744,-0.000961566,0.0115294,0.0391775,-0.128905,0.0617655,-0.159736
1413393220055760384,-0.58336,-0.145398,1.67634,0.589635,-0.0173612,-0.807454,-0.00689961,-0.0437887,-0.0724099,0.24572,-0.00115123,0.011705,0.039319,-0.0675003,0.168878,0.0141386
1413393220105760512,-0.585021,-0.15212,1.68703,0.590492,-0.0175332,-0.806814,-0.0079808,-0.0388501,-0.0688496,0.221568,-0.00115344,0.0117484,0.0394245,-0.073599,0.154349,0.00758836
1413393220155760384,-0.58693,-0.153676,1.6963,0.590742,-0.0169834,-0.806641,-0.00814982,-0.0310206,-0.0775416,0.202032,-0.0011943,0.0118084,0.0395587,-0.0748892,0.16207,0.0169423
1413393220205760512,-0.588676,-0.159426,1.70589,0.591488,-0.0163656,-0.806094,-0.00930217,-0.0290868,-0.0814381,0.223778,-0.00119658,0.0118093,0.0396215,-0.0750673,0.159002,0.0200851
1413393220255760384,-0.590189,-0.163172,1.71832,0.592054,-0.0169594,-0.805667,-0.00924944,-0.0216165,-0.0773549,0.223144,-0.00116702,0.0118757,0.0397343,-0.0774304,0.162826,0.0192595
1413393220305760512,-0.590848,-0.167824,1.72772,0.592463,-0.0161115,-0.805369,-0.0104737,-0.00913846,-0.0967178,0.228381,-0.00118011,0.0119236,0.0398582,-0.0776545,0.165313,0.0222845
1413393220355760384,-0.591492,-0.171708,1.73987,0.592986,-0.0163388,-0.804985,-0.0100776,-0.00368627,-0.0958744,0.231701,-0.00117121,0.0119036,0.0399661,-0.0762452,0.169248,0.0237555
1413393220405760512,-0.59086,-0.176015,1.75204,0.593021,-0.016793,-0.804952,-0.00985236,0.00464178,-0.0882448,0.245094,-0.00116296,0.0120098,0.0400824,-0.0810018,0.173384,0.0235899
1413393220455760384,-0.590212,-0.179796,1.76371,0.592396,-0.0170125,-0.805409,-0.00969593,0.018595,-0.106039,0.239154,-0.0012056,0.0120551,0.0401868,-0.080942,0.180618,0.0240236
1413393220505760512,-0.588739,-0.179726,1.7757,0.590585,-0.0176743,-0.806746,-0.00767221,0.0254375,-0.108276,0.226374,-0.00122386,0.0121107,0.0403301,-0.0826107,0.207299,0.0285371
1413393220555760384,-0.586238,-0.177389,1.77481,0.58896,-0.018598,-0.807931,-0.00532643,0.0398858,-0.102301,0.188581,-0.00121017,0.0121545,0.0404397,-0.0837524,0.242921,0.0276449
1413393220605760512,-0.583973,-0.170121,1.7818,0.587868,-0.0192691,-0.808726,-0.00178213,0.0345521,-0.114281,0.134215,-0.00125857,0.0121949,0.0405444,-0.0796678,0.303623,0.035625
1413393220655760384,-0.581247,-0.169816,1.77799,0.588395,-0.0191324,-0.808348,6.20105e-05,0.0364615,-0.120107,0.0821697,-0.00124301,0.012264,0.0406606,-0.0799768,0.330458,0.036537
1413393220705760512,-0.579482,-0.16949,1.79069,0.588793,-0.0203564,-0.808024,0.00220232,0.0517494,-0.108164,0.0333274,-0.00123126,0.0123306,0.0407795,-0.0781395,0.361378,0.0401496
1413393220755760384,-0.577246,-0.171054,1.79725,0.588339,-0.0223234,-0.808284,0.00600302,0.0427784,-0.134816,-0.0152211,-0.0012599,0.0123535,0.040857,-0.0750209,0.383782,0.0417556
1413393220805760512,-0.5732,-0.174824,1.77837,0.586059,-0.0247146,-0.809821,0.010716,0.0510385,-0.126807,-0.00843248,-0.00125982,0.0123609,0.0409475,-0.0712541,0.396881,0.0470375
1413393220855760384,-0.570451,-0.17848,1.78823,0.584337,-0.0282728,-0.810874,0.0152943,0.0558732,-0.0963931,0.042651,-0.00126465,0.0124002,0.0410754,-0.0703864,0.409103,0.0487797
1413393220905760512,-0.567638,-0.179665,1.79844,0.583066,-0.0300364,-0.811651,0.0188459,0.0613205,-0.114616,0.0975594,-0.00128932,0.0124668,0.0411809,-0.0684697,0.429986,0.0494527
1413393220955760384,-0.565227,-0.177726,1.7953,0.581538,-0.0308794,-0.812652,0.021359,0.0505073,-0.0801505,0.203175,-0.00129387,0.0125029,0.0412924,-0.0657029,0.453462,0.0551922
1413393221005760512,-0.562155,-0.177726,1.81487,0.581638,-0.0319165,-0.81254,0.021394,0.0406,-0.0365627,0.227909,-0.00127873,0.0125747,0.0414104,-0.0623696,0.477441,0.0628776
1413393221055760384,-0.562372,-0.174105,1.8318,0.580564,-0.0321224,-0.813299,0.0214142,0.0317663,-0.0406183,0.25786,-0.00132162,0.0125873,0.0415458,-0.055178,0.490608,0.0793064
1413393221105760512,-0.562328,-0.248887,1.83287,0.581876,-0.0317253,-0.812655,0.00222323,0.0224431,-0.0252749,0.271043,-0.00123765,0.0125413,0.0416118,-0.0828739,0.188537,0.0297713
1413393221155760384,-0.561679,-0.255684,1.88055,0.581084,-0.0326978,-0.813187,0.000399425,0.0225322,-0.00166478,0.284728,-0.00118733,0.0126052,0.0417102,-0.0841421,0.190233,0.0256463
1413393221205760512,-0.567293,-0.245437,1.91455,0.579599,-0.0328931,-0.814237,-0.000856619,0.0101301,-0.013072,0.289529,-0.00120036,0.0125603,0.0417596,-0.0730028,0.198945,0.0337506
1413393221255760384,-0.5585,-0.183636,1.87376,0.575711,-0.030959,-0.816918,0.0156417,0.0084652,0.0140911,0.28552,-0.00124889,0.0127214,0.0418932,-0.0480373,0.453926,0.086291
1413393221305760512,-0.555724,-0.187472,1.87159,0.574014,-0.0304196,-0.818186,0.0123983,0.0069257,0.0302497,0.272431,-0.00126158,0.0127437,0.0420159,-0.0461294,0.442549,0.0867169
1413393221355760384,-0.563897,-0.250771,1.92711,0.574526,-0.0308463,-0.817884,-0.00598474,-0.00932286,0.00745109,0.30795,-0.00120335,0.0126848,0.0421078,-0.0695767,0.164535,0.0380311
1413393221405760512,-0.556904,-0.18847,1.93509,0.570868,-0.0295389,-0.82045,0.009953,-0.031529,0.0374843,0.312536,-0.00124502,0.0128147,0.0421715,-0.0420173,0.437718,0.0802328
1413393221455760384,-0.557838,-0.187917,1.93288,0.570466,-0.028091,-0.82081,0.00714381,-0.0507493,0.0583209,0.293295,-0.00125147,0.0128372,0.0422878,-0.0431201,0.42806,0.0786716
1413393221505760512,-0.55189,-0.174447,1.92369,0.570941,-0.0256819,-0.820535,0.00948135,-0.0638446,0.0539492,0.231022,-0.00129952,0.0128894,0.0424021,-0.051417,0.464928,0.0500268
1413393221555760384,-0.55573,-0.172772,1.93578,0.570225,-0.0236523,-0.821124,0.00633074,-0.0714634,0.0543224,0.183008,-0.00131384,0.0128879,0.0424392,-0.048428,0.46009,0.0528787
1413393221605760512,-0.560236,-0.173906,1.94808,0.570273,-0.0223083,-0.821145,0.0036509,-0.0958556,0.046448,0.165565,-0.0013183,0.0129749,0.0425948,-0.048007,0.448695,0.050208
1413393221655760384,-0.564766,-0.170009,1.95577,0.570627,-0.0211642,-0.82093,0.00346496,-0.114015,0.0234356,0.170217,-0.00133109,0.0130154,0.0426856,-0.0450861,0.460595,0.0530127
1413393221705760512,-0.571371,-0.170472,1.96427,0.573691,-0.020437,-0.818814,0.00226042,-0.120858,0.0258583,0.179823,-0.0013235,0.0130152,0.0427632,-0.0412088,0.452316,0.0475656
1413393221755760384,-0.577728,-0.169027,1.97149,0.577235,-0.020689,-0.816311,0.0029357,-0.127261,0.0150121,0.171347,-0.00132966,0.0130448,0.0428264,-0.042628,0.456971,0.0503588
1413393221805760512,-0.584272,-0.168456,1.97923,0.580447,-0.0198988,-0.814048,0.00348649,-0.129885,-0.00403134,0.174812,-0.00130665,0.0131163,0.0429271,-0.0429027,0.461071,0.048436
1413393221855760384,-0.591364,-0.168186,1.98729,0.582373,-0.0189726,-0.812694,0.00327672,-0.129626,0.0114327,0.163573,-0.00133066,0.0131667,0.0430126,-0.0420247,0.460057,0.0469162
1413393221905760512,-0.598445,-0.167654,1.99358,0.583464,-0.0192595,-0.811899,0.00425311,-0.132201,-0.0117678,0.150224,-0.00131404,0.0131895,0.0430995,-0.0370526,0.464941,0.048316
1413393221955760384,-0.60544,-0.168086,2.00043,0.584963,-0.0191126,-0.810812,0.00602778,-0.129736,-0.0177009,0.125363,-0.00131258,0.013202,0.0432065,-0.0355095,0.468593,0.050889
1413393222005760512,-0.611991,-0.168699,2.00454,0.584944,-0.019183,-0.810821,0.00640084,-0.123323,-0.0078337,0.0710748,-0.00130922,0.0132018,0.0433059,-0.0330041,0.470354,0.0530577
1413393222055760384,-0.61848,-0.169483,2.00517,0.585697,-0.01935,-0.810267,0.00729626,-0.11583,-0.0294672,0.0111498,-0.00131864,0.0132416,0.0434042,-0.0325988,0.471442,0.0532847
1413393222105760512,-0.624402,-0.17076,2.00254,0.586351,-0.019143,-0.809784,0.00876165,-0.116131,-0.0425732,-0.05074,-0.00130762,0.0132861,0.043494,-0.0327936,0.474176,0.0553661
1413393222155760384,-0.630163,-0.172242,1.99778,0.586413,-0.0186406,-0.809748,0.00897909,-0.10821,-0.0311922,-0.106681,-0.00129597,0.0133179,0.0435418,-0.0324278,0.477479,0.0558925
1413393222205760512,-0.635218,-0.174105,1.98996,0.586343,-0.018347,-0.809803,0.00925548,-0.0978516,-0.0413422,-0.16586,-0.00130481,0.0133411,0.0436823,-0.0369307,0.477341,0.0553656
1413393222255760384,-0.639816,-0.175933,1.97935,0.585224,-0.0182311,-0.810602,0.0102889,-0.0901251,-0.0510241,-0.216991,-0.00131553,0.0133678,0.0437407,-0.0391023,0.47755,0.0525723
1413393222305760512,-0.644174,-0.177674,1.96674,0.582923,-0.0173454,-0.81228,0.0101062,-0.0897418,-0.0344133,-0.248207,-0.00132404,0.0133952,0.0438295,-0.0414937,0.479965,0.0517762
1413393222355760384,-0.648531,-0.17955,1.95373,0.578843,-0.017475,-0.815185,0.0104259,-0.0942388,-0.0451299,-0.245106,-0.00132444,0.0134407,0.0439164,-0.0421824,0.482581,0.0477926
1413393222405760512,-0.65321,-0.181889,1.94241,0.574737,-0.0169932,-0.818084,0.0113287,-0.100576,-0.0521105,-0.224516,-0.00131038,0.0135111,0.0440176,-0.0432376,0.483085,0.0483486
1413393222455760384,-0.658382,-0.183923,1.93191,0.571415,-0.0157478,-0.82045,0.0100272,-0.108447,-0.0444113,-0.197429,-0.00132655,0.0134929,0.0440817,-0.0424017,0.483633,0.046991
1413393222505760512,-0.664203,-0.186793,1.9232,0.568715,-0.0153286,-0.822321,0.0108269,-0.135547,-0.0617081,-0.166726,-0.00131726,0.0135567,0.0441961,-0.0454257,0.484163,0.0470111
1413393222555760384,-0.671247,-0.189919,1.91616,0.567619,-0.0171227,-0.822996,0.0139349,-0.147167,-0.0688051,-0.106139,-0.00130715,0.0135894,0.0442464,-0.0452617,0.483539,0.0466473
1413393222605760512,-0.679051,-0.192868,1.91056,0.566315,-0.016745,-0.823895,0.0143033,-0.17136,-0.0556764,-0.0791415,-0.00132676,0.0135945,0.0443643,-0.0451584,0.480047,0.0453675
1413393222655760384,-0.687597,-0.195508,1.90766,0.56521,-0.0172106,-0.824624,0.0153997,-0.19594,-0.0563256,-0.021343,-0.00134932,0.0136061,0.0444163,-0.0448607,0.480897,0.0445339
1413393222705760512,-0.697653,-0.19837,1.90738,0.565475,-0.0156117,-0.824491,0.0144615,-0.21952,-0.054763,0.0264888,-0.00133991,0.013623,0.0444879,-0.0469451,0.481657,0.0401901
1413393222755760384,-0.708858,-0.201005,1.90926,0.564052,-0.0157154,-0.82544,0.0157122,-0.244949,-0.045731,0.058555,-0.00128943,0.0137561,0.0447546,-0.0580209,0.491693,0.0328428
1413393222805760512,-0.721235,-0.203521,1.91344,0.562375,-0.0156259,-0.826572,0.0163941,-0.270384,-0.043154,0.108373,-0.00124723,0.0136802,0.0447266,-0.0518523,0.487763,0.0314154
1413393222855760384,-0.734574,-0.2057,1.91949,0.560419,-0.0153258,-0.827889,0.0171781,-0.284213,-0.0379498,0.138453,-0.00123403,0.0135992,0.0447314,-0.0456176,0.483824,0.0336005
1413393222905760512,-0.749062,-0.20772,1.92793,0.559425,-0.0149477,-0.828535,0.0187168,-0.305848,-0.0314033,0.180403,-0.00120257,0.0136091,0.0448368,-0.0484818,0.483581,0.029487
1413393222955760384,-0.764806,-0.209315,1.93787,0.55781,-0.0141012,-0.829616,0.0196774,-0.336314,-0.0275432,0.227148,-0.001049,0.0137835,0.0451461,-0.061681,0.500299,0.017681
1413393223005760512,-0.781648,-0.211328,1.95085,0.559145,-0.0124184,-0.828753,0.019255,-0.356,-0.0250661,0.238148,-0.00101311,0.0137969,0.0451749,-0.0606331,0.495808,0.0158305
1413393223055760384,-0.800174,-0.213331,1.96425,0.561225,-0.0110748,-0.827352,0.0198054,-0.390042,-0.0262004,0.258666,-0.00103613,0.0138321,0.0452275,-0.0607312,0.484523,0.0182388
1413393223105760512,-0.820112,-0.214681,1.977,0.563053,-0.0105144,-0.826095,0.0206806,-0.418955,-0.0178901,0.259258,-0.00105526,0.0138607,0.0452897,-0.059629,0.478856,0.0210457
1413393223155760384,-0.841489,-0.216242,1.99035,0.56464,-0.00905673,-0.825057,0.0194876,-0.446403,-0.021393,0.262747,-0.00103805,0.0139388,0.0453787,-0.0627116,0.473276,0.0221642
1413393223205760512,-0.863762,-0.218123,2.00353,0.56647,-0.00670424,-0.823859,0.0179962,-0.464478,-0.031488,0.267952,-0.00104044,0.013973,0.0454821,-0.0614786,0.466489,0.0229649
1413393223255760384,-0.887072,-0.219901,2.01603,0.567508,-0.0051555,-0.823183,0.0166981,-0.481354,-0.0281178,0.224885,-0.0011009,0.0140496,0.04556,-0.0660291,0.459423,0.0216085
1413393223305760512,-0.911106,-0.222111,2.02673,0.569127,-0.00471083,-0.822064,0.0168664,-0.494317,-0.0474084,0.185479,-0.00108709,0.0140825,0.0457046,-0.067525,0.457251,0.0180087
1413393223355760384,-0.935662,-0.224934,2.03408,0.570193,-0.00383824,-0.821344,0.0161039,-0.504319,-0.0571504,0.101174,-0.00108912,0.0140931,0.0457324,-0.0694751,0.454661,0.0150725
1413393223405760512,-0.960658,-0.228296,2.037,0.571927,-0.00329249,-0.820146,0.0157802,-0.506732,-0.0668733,0.00193734,-0.00112608,0.0141513,0.0458259,-0.0730975,0.454169,0.0108711
1413393223455760384,-0.985869,-0.231936,2.03485,0.573948,-0.00301454,-0.818751,0.0148758,-0.514567,-0.0768522,-0.110732,-0.00107366,0.0141963,0.0459308,-0.0718425,0.45621,0.00371002
1413393223505760512,-1.01158,-0.236022,2.02691,0.576679,-0.00216363,-0.81685,0.013886,-0.518028,-0.0859699,-0.205351,-0.00106667,0.0142214,0.0459972,-0.0725276,0.458401,0.00496031
1413393223555760384,-1.03727,-0.240495,2.01444,0.579342,-0.00277979,-0.814962,0.0138366,-0.524428,-0.0972189,-0.279729,-0.00105671,0.0143038,0.04608,-0.0763567,0.460989,0.00160452
1413393223605760512,-1.06321,-0.245244,1.99913,0.581898,-0.00335157,-0.813153,0.0128963,-0.51408,-0.0975593,-0.34763,-0.00101168,0.0143809,0.0462229,-0.0725647,0.46155,0.00172828
1413393223655760384,-1.08864,-0.250183,1.98091,0.58391,-0.00378038,-0.811729,0.0114175,-0.514945,-0.105043,-0.378381,-0.000993468,0.0143791,0.0462533,-0.0647912,0.458416,0.00159036
1413393223705760512,-1.11418,-0.255702,1.96232,0.58469,-0.00525382,-0.811173,0.0104282,-0.509998,-0.113017,-0.353847,-0.00101726,0.014418,0.0463342,-0.0614029,0.455517,0.0070127
1413393223755760384,-1.13949,-0.261828,1.94607,0.585378,-0.00640545,-0.810684,0.00915258,-0.510744,-0.121408,-0.281718,-0.00107152,0.014404,0.046398,-0.0578229,0.447788,0.0152957
1413393223805760512,-1.16429,-0.268278,1.93341,0.586266,-0.00817545,-0.810035,0.0083632,-0.499027,-0.137278,-0.225944,-0.00110391,0.0144315,0.0464704,-0.0568257,0.444701,0.0215446
1413393223855760384,-1.18872,-0.275142,1.92492,0.584893,-0.00971182,-0.811019,0.00740864,-0.473041,-0.140364,-0.132749,-0.00113478,0.0144769,0.0465516,-0.0534399,0.442626,0.0213416
1413393223905760512,-1.21241,-0.282083,1.91923,0.585141,-0.0104993,-0.810851,0.0046488,-0.488113,-0.137421,-0.0700707,-0.00112717,0.0145142,0.0466365,-0.0496328,0.440275,0.0262467
1413393223955760384,-1.23624,-0.289233,1.91754,0.584623,-0.0115793,-0.811216,0.00331864,-0.482891,-0.151901,-0.0146768,-0.00114389,0.0145425,0.0467284,-0.0476983,0.440437,0.0245685
1413393224005760512,-1.26019,-0.296973,1.91822,0.585501,-0.0130691,-0.810562,0.0025523,-0.48114,-0.162274,0.0156327,-0.00114784,0.0145063,0.0467792,-0.0401934,0.441007,0.0299163
1413393224055760384,-1.28408,-0.305374,1.91894,0.584802,-0.0149959,-0.811034,0.00243442,-0.483953,-0.178457,0.00578395,-0.00112911,0.0145353,0.046886,-0.0405403,0.442136,0.0331455
1413393224105760512,-1.30818,-0.315011,1.91842,0.585891,-0.0170019,-0.810209,0.00227491,-0.481259,-0.212339,-0.0406714,-0.00117183,0.0145,0.0469408,-0.0348676,0.438106,0.0387675
1413393224155760384,-1.3318,-0.325801,1.91498,0.586367,-0.0184146,-0.809835,0.00160981,-0.480778,-0.232849,-0.0701335,-0.00117017,0.0144974,0.047019,-0.0357246,0.433554,0.032615
1413393224205760512,-1.35549,-0.33797,1.90989,0.586438,-0.0176619,-0.809802,-0.000149971,-0.470965,-0.249675,-0.137778,-0.00122489,0.014466,0.0471142,-0.0311597,0.422887,0.0334297
1413393224255760384,-1.37905,-0.350394,1.90215,0.587537,-0.0185019,-0.808985,-0.00159563,-0.468548,-0.258699,-0.168295,-0.00123116,0.0144755,0.0471184,-0.0359488,0.425354,0.0330131
1413393224305760512,-1.40219,-0.363566,1.89256,0.589052,-0.0198484,-0.807849,-0.00184246,-0.459416,-0.272363,-0.227918,-0.00123714,0.0144767,0.0472246,-0.0324445,0.425362,0.0391792
1413393224355760384,-1.42549,-0.377385,1.8799,0.589166,-0.019089,-0.80778,-0.00324783,-0.461554,-0.277671,-0.274778,-0.00122748,0.0145017,0.0473095,-0.0316532,0.424814,0.0432867
1413393224405760512,-1.44834,-0.39144,1.86532,0.588714,-0.0207005,-0.808062,-0.00487269,-0.447033,-0.271766,-0.318993,-0.00123271,0.0144707,0.0473649,-0.0228685,0.417648,0.0480379
1413393224455760384,-1.46976,-0.404874,1.84737,0.589778,-0.0245856,-0.807174,-0.00527128,-0.422702,-0.275629,-0.369074,-0.00126847,0.0145944,0.0474045,-0.0305035,0.416492,0.0387748
1413393224505760512,-1.48996,-0.418069,1.82766,0.590054,-0.0295878,-0.806797,-0.00622856,-0.392832,-0.262528,-0.42055,-0.0012144,0.0146552,0.0474955,-0.030173,0.423134,0.0396812
1413393224555760384,-1.50895,-0.430925,1.80547,0.589873,-0.0370139,-0.806625,-0.0061256,-0.375584,-0.258335,-0.45452,-0.00118814,0.0146825,0.0475767,-0.0290099,0.425573,0.0389659
1413393224605760512,-1.52721,-0.443689,1.7827,0.590872,-0.0446636,-0.805496,-0.00725627,-0.362022,-0.248623,-0.472054,-0.00117687,0.0147079,0.0476001,-0.0270906,0.424618,0.0364094
1413393224655760384,-1.54525,-0.455636,1.76029,0.590892,-0.0531738,-0.804948,-0.00880455,-0.358789,-0.229094,-0.426437,-0.0011672,0.0147434,0.0476561,-0.0267101,0.425454,0.0346405
1413393224705760512,-1.56268,-0.467215,1.73943,0.588817,-0.0616086,-0.805845,-0.0106636,-0.34806,-0.235717,-0.416053,-0.00114987,0.0147622,0.0476978,-0.0246168,0.425544,0.0374739
1413393224755760384,-1.5804,-0.478435,1.71901,0.586738,-0.0704037,-0.806615,-0.0124562,-0.357569,-0.222663,-0.397083,-0.00116868,0.0148038,0.047766,-0.0226704,0.421416,0.0445725
1413393224805760512,-1.59768,-0.489345,1.69977,0.584513,-0.078601,-0.807399,-0.0165455,-0.330778,-0.204302,-0.378739,-0.0011806,0.0148311,0.0478202,-0.0164673,0.417285,0.0487043
1413393224855760384,-1.6143,-0.499747,1.68205,0.582252,-0.0868915,-0.808106,-0.0199109,-0.328669,-0.213274,-0.32984,-0.00119458,0.0147985,0.0478394,-0.00710463,0.412333,0.0570558
1413393224905760512,-1.63109,-0.509812,1.66759,0.581161,-0.092679,-0.80815,-0.0235987,-0.33294,-0.197343,-0.272341,-0.00122487,0.0147812,0.0478902,0.00117718,0.405594,0.0646149
1413393224955760384,-1.64684,-0.519354,1.65564,0.57913,-0.0985629,-0.808813,-0.0267688,-0.301892,-0.170154,-0.210276,-0.00128026,0.0147637,0.0479334,0.00629562,0.395172,0.0765402
1413393225005760512,-1.66207,-0.528064,1.64734,0.577399,-0.101743,-0.809506,-0.0309861,-0.300491,-0.173863,-0.13849,-0.00134538,0.0146963,0.0479641,0.0154298,0.386229,0.0875018
1413393225055760384,-1.67713,-0.535901,1.6415,0.575588,-0.103108,-0.810456,-0.0350381,-0.292628,-0.151059,-0.123801,-0.00137211,0.0147437,0.0480711,0.0101569,0.386026,0.101102
1413393225105760512,-1.69171,-0.542014,1.63784,0.574409,-0.105317,-0.810872,-0.0380901,-0.276732,-0.116183,-0.0520974,-0.0013618,0.0147847,0.0481126,0.00758503,0.397433,0.101976
1413393225155760384,-1.70527,-0.548073,1.63531,0.574136,-0.106459,-0.810788,-0.0407107,-0.263496,-0.127735,-0.0658609,-0.00136956,0.0148285,0.0482001,0.0045517,0.395688,0.11282
1413393225205760512,-1.71786,-0.553759,1.63219,0.573485,-0.108234,-0.811017,-0.0406554,-0.253277,-0.109774,-0.0542059,-0.00136839,0.0148916,0.0483209,0.00204977,0.397902,0.117151
1413393225255760384,-1.73001,-0.55897,1.62909,0.572604,-0.108863,-0.81146,-0.0425115,-0.236783,-0.0955499,-0.049222,-0.00137403,0.0149288,0.0484071,0.00134131,0.395497,0.122326
1413393225305760512,-1.74176,-0.56366,1.62543,0.571673,-0.110707,-0.811821,-0.0433781,-0.235544,-0.100679,-0.0786363,-0.00137562,0.0149726,0.0484798,-0.000210677,0.394897,0.122445
1413393225355760384,-1.75332,-0.567711,1.62285,0.571628,-0.113477,-0.811341,-0.0457167,-0.220993,-0.0770852,-0.0590887,-0.00138818,0.0150075,0.0485423,-0.000666788,0.395057,0.123327
1413393225405760512,-1.76476,-0.571429,1.62029,0.570697,-0.119301,-0.811095,-0.0468843,-0.22771,-0.0615892,-0.0380197,-0.00137322,0.0150672,0.0486351,-0.00173739,0.395369,0.127064
1413393225455760384,-1.77674,-0.574029,1.61917,0.569647,-0.126324,-0.810661,-0.0487139,-0.241925,-0.0462768,-0.0228873,-0.00136815,0.0151032,0.0486963,-0.00194935,0.39399,0.129172
1413393225505760512,-1.78856,-0.575254,1.61886,0.569515,-0.135652,-0.809116,-0.0508179,-0.233522,-0.00287967,-0.00808097,-0.00137231,0.0150928,0.0487474,-0.00105047,0.395151,0.131859
1413393225555760384,-1.80035,-0.574549,1.61872,0.567661,-0.14601,-0.808395,-0.0542204,-0.237873,0.027324,0.00811093,-0.00135019,0.015117,0.0488281,-0.00331914,0.397924,0.130436
1413393225605760512,-1.81305,-0.57201,1.61981,0.566518,-0.157222,-0.806778,-0.058723,-0.269081,0.0642167,0.0470597,-0.00137091,0.0151545,0.048888,-0.00454159,0.393949,0.133893
1413393225655760384,-1.82622,-0.567874,1.62263,0.566105,-0.169292,-0.804202,-0.064225,-0.265312,0.0959081,0.0660369,-0.00137827,0.0151711,0.0489502,-0.00274871,0.393213,0.137268
1413393225705760512,-1.83921,-0.562733,1.62678,0.564906,-0.181068,-0.801793,-0.0722818,-0.265592,0.116669,0.0951238,-0.00138261,0.0151918,0.0490216,-0.00204803,0.395797,0.142329
1413393225755760384,-1.85247,-0.556644,1.63186,0.563624,-0.191762,-0.799202,-0.0826546,-0.276855,0.126227,0.101447,-0.00138472,0.0152123,0.0490736,-0.000980587,0.395592,0.146118
1413393225805760512,-1.86565,-0.549224,1.63731,0.562392,-0.201814,-0.796296,-0.0943348,-0.264718,0.163622,0.124874,-0.00135702,0.0152443,0.049152,-0.00122835,0.397294,0.149542
1413393225855760384,-1.87853,-0.541062,1.64233,0.560026,-0.211148,-0.793651,-0.10911,-0.260098,0.17084,0.0640681,-0.00135551,0.0152589,0.0491965,0.00360352,0.39746,0.154904
1413393225905760512,-1.89185,-0.532719,1.64342,0.55868,-0.220913,-0.79002,-0.122242,-0.262836,0.165722,-0.0283824,-0.00133415,0.0152578,0.049261,0.00677882,0.397794,0.159357
1413393225955760384,-1.90523,-0.524753,1.63948,0.555843,-0.229766,-0.787133,-0.136632,-0.269245,0.166688,-0.132781,-0.00131613,0.0152646,0.0493254,0.00955611,0.394567,0.164812
1413393226005760512,-1.91877,-0.517003,1.63164,0.554084,-0.238551,-0.783314,-0.150016,-0.263068,0.159135,-0.205416,-0.00131929,0.0152751,0.0493815,0.0114937,0.390063,0.168402
1413393226055760384,-1.93219,-0.509647,1.6213,0.552419,-0.248714,-0.779098,-0.161188,-0.260989,0.150266,-0.22353,-0.00130902,0.0152951,0.0494518,0.0120428,0.385966,0.172055
1413393226105760512,-1.94517,-0.503173,1.61057,0.550895,-0.259586,-0.774998,-0.168847,-0.256001,0.126352,-0.221717,-0.00131116,0.0153145,0.049509,0.013594,0.381942,0.174693
1413393226155760384,-1.95812,-0.497154,1.60023,0.549881,-0.270422,-0.770623,-0.175055,-0.249468,0.12731,-0.191372,-0.00130746,0.01533,0.0495725,0.0158137,0.380361,0.179101
1413393226205760512,-1.97032,-0.491245,1.59176,0.5483,-0.280528,-0.766815,-0.180738,-0.237456,0.108382,-0.13324,-0.00129553,0.0153195,0.0496399,0.0174874,0.379747,0.183001
1413393226255760384,-1.98273,-0.485952,1.58709,0.546654,-0.290067,-0.763715,-0.183769,-0.244715,0.114311,-0.0672285,-0.00130435,0.0153345,0.0496806,0.0170672,0.37643,0.184721
1413393226305760512,-1.99472,-0.480989,1.58486,0.545452,-0.298039,-0.760775,-0.186753,-0.219885,0.111868,-0.0514343,-0.00126946,0.0153064,0.0497167,0.0185479,0.37925,0.178073
1413393226355760384,-2.00644,-0.476222,1.58427,0.543106,-0.306213,-0.759203,-0.186766,-0.228054,0.104212,-0.00719929,-0.00125148,0.0153693,0.0498043,0.014798,0.376736,0.180057
1413393226405760512,-2.01751,-0.471562,1.58456,0.539384,-0.312203,-0.759179,-0.187727,-0.224339,0.101354,-0.00929328,-0.00127621,0.0153635,0.0498866,0.0127193,0.370301,0.180935
1413393226455760384,-2.02897,-0.467031,1.58415,0.53507,-0.317982,-0.759929,-0.187339,-0.237455,0.10025,-0.0289301,-0.00129439,0.0153804,0.0499383,0.0140446,0.367869,0.180963
1413393226505760512,-2.04147,-0.462417,1.58165,0.531408,-0.322718,-0.760645,-0.186756,-0.257814,0.10499,-0.0752631,-0.00133319,0.0154151,0.0499876,0.0107894,0.358425,0.181144
1413393226555760384,-2.05451,-0.457337,1.57724,0.528991,-0.326668,-0.760875,-0.185814,-0.261979,0.112761,-0.112099,-0.00135703,0.0154897,0.0500411,0.00986565,0.355519,0.180162
1413393226605760512,-2.06783,-0.451918,1.57063,0.526483,-0.329682,-0.761427,-0.185349,-0.258902,0.132138,-0.142563,-0.00134859,0.0155229,0.0501264,0.0114224,0.355846,0.175972
1413393226655760384,-2.08103,-0.444845,1.56371,0.524986,-0.331127,-0.761604,-0.186293,-0.269971,0.152898,-0.1298,-0.00136193,0.0155344,0.0501643,0.0147622,0.352906,0.171791
1413393226705760512,-2.09473,-0.436518,1.5569,0.524936,-0.328534,-0.761475,-0.191478,-0.285298,0.174979,-0.12948,-0.00134954,0.0155758,0.0502238,0.0178788,0.358132,0.172997
1413393226755760384,-2.10891,-0.427017,1.55098,0.526027,-0.325558,-0.760529,-0.197239,-0.285638,0.199988,-0.113541,-0.00135321,0.01559,0.0502911,0.0206502,0.359905,0.171024
1413393226805760512,-2.12383,-0.417496,1.54527,0.526159,-0.322178,-0.76053,-0.202368,-0.311955,0.192474,-0.0999926,-0.00133526,0.0156218,0.0503498,0.0215145,0.36078,0.173928
1413393226855760384,-2.13926,-0.407724,1.53945,0.526438,-0.319184,-0.760722,-0.205639,-0.31746,0.196289,-0.122309,-0.00134043,0.0156234,0.0504018,0.0233046,0.360445,0.174745
1413393226905760512,-2.15528,-0.397887,1.53393,0.525825,-0.316235,-0.761378,-0.209303,-0.325567,0.196483,-0.106942,-0.00131862,0.0156097,0.0504798,0.0276813,0.362162,0.173133
1413393226955760384,-2.17214,-0.38842,1.52884,0.525669,-0.314505,-0.761776,-0.210848,-0.3482,0.189871,-0.0882567,-0.00131538,0.0156309,0.0505252,0.0278167,0.360295,0.177454
1413393227005760512,-2.18973,-0.378712,1.52426,0.525634,-0.312708,-0.762329,-0.211607,-0.357726,0.189928,-0.0846509,-0.00134272,0.0156318,0.0505806,0.03064,0.357854,0.178458
1413393227055760384,-2.20791,-0.369138,1.52018,0.526503,-0.312244,-0.761991,-0.211349,-0.37483,0.186912,-0.0746445,-0.00133339,0.0156564,0.0506653,0.0312042,0.357412,0.179538
1413393227105760512,-2.22685,-0.360046,1.51673,0.528293,-0.311915,-0.761038,-0.210801,-0.387079,0.173264,-0.0751789,-0.00132561,0.0156829,0.0507133,0.0316165,0.356473,0.179837
1413393227155760384,-2.24644,-0.351455,1.51371,0.530173,-0.312812,-0.759966,-0.208607,-0.397668,0.168399,-0.0591338,-0.00135462,0.0156976,0.0507736,0.0297401,0.352292,0.182747
1413393227205760512,-2.26632,-0.342734,1.51092,0.532071,-0.313677,-0.758934,-0.206222,-0.403616,0.167276,-0.0380541,-0.00136223,0.0157483,0.0508405,0.0272762,0.35264,0.185055
1413393227255760384,-2.28669,-0.334385,1.50927,0.534667,-0.315891,-0.757165,-0.202599,-0.403768,0.168177,-0.0130955,-0.00139079,0.0158106,0.050912,0.0254892,0.347295,0.192594
1413393227305760512,-2.30664,-0.325973,1.50788,0.534831,-0.317407,-0.756936,-0.20064,-0.401752,0.162989,-0.0224919,-0.00140283,0.0158609,0.0509856,0.0233798,0.347819,0.193867
1413393227355760384,-2.32639,-0.317581,1.50697,0.535905,-0.318425,-0.756052,-0.199494,-0.399036,0.160301,-0.0118089,-0.00145221,0.0158783,0.0510259,0.0255088,0.344659,0.18669
1413393227405760512,-2.34613,-0.308987,1.5061,0.535431,-0.319882,-0.756205,-0.197848,-0.392857,0.169712,-0.0074198,-0.00143712,0.0159106,0.0511035,0.0276142,0.345584,0.194453
1413393227455760384,-2.36578,-0.300234,1.50543,0.535484,-0.321489,-0.755887,-0.196308,-0.391547,0.174907,-0.00937565,-0.00146073,0.0159582,0.0511705,0.0280759,0.345379,0.205099
1413393227505760512,-2.38523,-0.291119,1.50499,0.535561,-0.32234,-0.755614,-0.195751,-0.388692,0.175653,-0.0147416,-0.00147789,0.0160022,0.0512402,0.0293182,0.3425,0.211924
1413393227555760384,-2.40427,-0.281796,1.50472,0.536556,-0.324362,-0.754047,-0.19573,-0.378801,0.187069,-0.0106458,-0.0014946,0.0160634,0.0513334,0.0261589,0.338162,0.213016
1413393227605760512,-2.42272,-0.272036,1.50456,0.537115,-0.327528,-0.752161,-0.196183,-0.3687,0.193526,-0.00678343,-0.0015587,0.016105,0.0514216,0.0258985,0.333786,0.215385
1413393227655760384,-2.44054,-0.261404,1.50378,0.536475,-0.331061,-0.750608,-0.197945,-0.355369,0.21157,0.00337147,-0.00149783,0.0160712,0.051449,0.0330553,0.341482,0.220858
1413393227705760512,-2.45754,-0.250313,1.5033,0.534971,-0.335923,-0.748878,-0.200359,-0.337147,0.228313,0.0039918,-0.00157188,0.0161018,0.0515306,0.0335184,0.331625,0.217553
1413393227755760384,-2.47368,-0.238518,1.50294,0.533711,-0.342097,-0.746243,-0.203083,-0.316741,0.239137,-0.00117349,-0.0016623,0.016193,0.0515516,0.0300676,0.328197,0.227367
1413393227805760512,-2.48873,-0.226184,1.50277,0.531358,-0.347625,-0.744104,-0.207666,-0.29681,0.245593,-0.0114624,-0.00167377,0.0162112,0.0516152,0.0342204,0.328942,0.232814
1413393227855760384,-2.50285,-0.21339,1.50249,0.530147,-0.35577,-0.74024,-0.210755,-0.27551,0.265109,-0.00887982,-0.00168405,0.0162349,0.0516875,0.0372254,0.330228,0.238788
1413393227905760512,-2.51613,-0.199809,1.50206,0.527919,-0.363422,-0.73678,-0.215363,-0.269498,0.27359,0.00507527,-0.001696,0.0162561,0.0517246,0.0382748,0.334595,0.243623
1413393227955760384,-2.52889,-0.185863,1.50202,0.526556,-0.371778,-0.732048,-0.220516,-0.250944,0.281409,0.000945062,-0.00169867,0.0162772,0.0517761,0.0415159,0.334289,0.248277
1413393228005760512,-2.54054,-0.171287,1.50112,0.523825,-0.381353,-0.7274,-0.22598,-0.230832,0.296812,-0.0198644,-0.00172605,0.0163371,0.0518381,0.0421573,0.334052,0.254468
1413393228055760384,-2.55198,-0.156339,1.49996,0.52035,-0.390145,-0.722784,-0.233682,-0.235928,0.300812,-0.0325898,-0.00170888,0.0164051,0.0519245,0.0424072,0.337515,0.256924
1413393228105760512,-2.56318,-0.1409,1.4984,0.516983,-0.399808,-0.717772,-0.240178,-0.227492,0.311998,-0.0135524,-0.00164597,0.0164274,0.0519589,0.0450783,0.344295,0.266183
1413393228155760384,-2.57396,-0.125076,1.49662,0.511914,-0.40895,-0.713604,-0.24794,-0.211153,0.315172,-0.0405156,-0.00170026,0.0164901,0.0519969,0.0436247,0.338418,0.272088
1413393228205760512,-2.58455,-0.109135,1.49461,0.507027,-0.418269,-0.709467,-0.254228,-0.211092,0.31719,-0.0333338,-0.00169891,0.0165369,0.052055,0.0451533,0.334987,0.277655
1413393228255760384,-2.59473,-0.0930521,1.49289,0.502196,-0.425001,-0.706267,-0.261459,-0.19838,0.322581,-0.0282321,-0.00167965,0.0165965,0.0521272,0.046,0.331319,0.281656
1413393228305760512,-2.6043,-0.0766956,1.49138,-0.498033,0.43112,0.703019,0.268074,-0.190313,0.328078,-0.0246588,-0.00170977,0.0166436,0.0521982,0.0461985,0.325357,0.285656
1413393228355760384,-2.61362,-0.0598305,1.49017,-0.494207,0.436583,0.699931,0.27432,-0.186763,0.33732,-0.0143509,-0.00162943,0.0166453,0.0522694,0.0510823,0.334542,0.288542
1413393228405760512,-2.62225,-0.0426122,1.48948,-0.49045,0.442301,0.696483,0.280609,-0.168174,0.349409,-0.00852261,-0.0017072,0.0167143,0.0523082,0.0473377,0.323057,0.292992
1413393228455760384,-2.6305,-0.0248386,1.48877,-0.487164,0.448776,0.692258,0.286447,-0.162206,0.360579,0.00176548,-0.0017211,0.0167461,0.0523362,0.0484042,0.320444,0.299961
1413393228505760512,-2.63873,-0.00675436,1.48893,-0.48538,0.454132,0.687373,0.292727,-0.169115,0.359893,0.00837078,-0.00170038,0.0167839,0.0524092,0.0512248,0.319356,0.30628
1413393228555760384,-2.64658,0.0114074,1.48939,-0.483178,0.460157,0.682666,0.29793,-0.145924,0.365969,0.0108557,-0.00170802,0.0167034,0.0524516,0.0591014,0.315446,0.312679
1413393228605760512,-2.65399,0.0296859,1.48973,-0.479452,0.466419,0.678998,0.302557,-0.146746,0.365841,0.0218315,-0.00170924,0.0166747,0.0525221,0.0659082,0.314828,0.318075
1413393228655760384,-2.66152,0.0478407,1.49089,-0.47699,0.471934,0.675622,0.305442,-0.153414,0.362146,0.0317704,-0.0016888,0.0166725,0.0525702,0.0712554,0.314628,0.322796
1413393228705760512,-2.66886,0.0659957,1.49239,-0.473642,0.476217,0.673671,0.308299,-0.139518,0.369549,0.0256711,-0.00169346,0.016653,0.0526379,0.0764465,0.312696,0.328535
1413393228755760384,-2.67615,0.0845573,1.49384,-0.470898,0.480143,0.672017,0.310018,-0.148617,0.369472,0.0314186,-0.00169643,0.0166457,0.0527147,0.0831868,0.311067,0.3327
1413393228805760512,-2.68369,0.103206,1.49512,-0.468275,0.484643,0.671342,0.308447,-0.153261,0.373047,0.0161468,-0.00166401,0.0166337,0.0527309,0.0864153,0.311216,0.331951
1413393228855760384,-2.69104,0.121816,1.49562,-0.465535,0.488652,0.670987,0.30704,-0.139294,0.368354,0.00606244,-0.00161915,0.0165681,0.0527992,0.0935316,0.314081,0.337014
1413393228905760512,-2.69798,0.140139,1.49587,-0.462058,0.492566,0.671827,0.304188,-0.133931,0.375155,0.00795025,-0.00157503,0.0166125,0.0528306,0.0945786,0.315263,0.338397
1413393228955760384,-2.70454,0.159248,1.49607,-0.460675,0.494552,0.671844,0.303024,-0.133987,0.387161,-0.00579864,-0.0015127,0.0166761,0.0528753,0.0941945,0.318406,0.340765
1413393229005760512,-2.71083,0.179385,1.49576,-0.458706,0.494135,0.672742,0.304693,-0.12016,0.41622,-0.00160411,-0.00150687,0.0166555,0.0529334,0.0973259,0.317383,0.343782
1413393229055760384,-2.7172,0.20076,1.49508,-0.456256,0.491431,0.674493,0.308845,-0.133892,0.441567,-0.0280957,-0.0015198,0.0166777,0.0529719,0.0967518,0.315648,0.346722
1413393229105760512,-2.72396,0.223048,1.49323,-0.455694,0.488069,0.67536,0.313082,-0.138275,0.453811,-0.0540744,-0.0014983,0.0166803,0.0530146,0.0980173,0.316069,0.347932
1413393229155760384,-2.73118,0.245724,1.49056,-0.454686,0.484876,0.676515,0.31699,-0.143943,0.454748,-0.0441946,-0.00143208,0.016726,0.0530696,0.0984474,0.317427,0.345309
1413393229205760512,-2.73896,0.268237,1.48757,-0.454026,0.481861,0.67762,0.320159,-0.173665,0.451704,-0.0712508,-0.00128326,0.0167207,0.0530604,0.102215,0.325736,0.339528
1413393229255760384,-2.74821,0.29077,1.48396,-0.453577,0.47872,0.678893,0.3228,-0.19504,0.447315,-0.0853799,-0.00121354,0.0168054,0.0531338,0.0997275,0.328125,0.341631
1413393229305760512,-2.75832,0.313199,1.4792,-0.453989,0.476357,0.679272,0.324913,-0.209593,0.442468,-0.096316,-0.00121141,0.0168361,0.0531781,0.103616,0.328699,0.34696
1413393229355760384,-2.76985,0.335286,1.47376,-0.455042,0.474593,0.679312,0.325934,-0.250519,0.441086,-0.110052,-0.00121368,0.0167995,0.0532324,0.111032,0.328269,0.355107
1413393229405760512,-2.78269,0.357194,1.46762,-0.457276,0.473828,0.678614,0.325374,-0.273456,0.43563,-0.12612,-0.00115583,0.0168367,0.0533051,0.115686,0.329746,0.356707
1413393229455760384,-2.79706,0.378649,1.46141,-0.461108,0.474648,0.676475,0.323219,-0.286995,0.426685,-0.125539,-0.00116007,0.0168687,0.053318,0.117894,0.326642,0.362302
1413393229505760512,-2.8122,0.399679,1.45526,-0.465234,0.476357,0.674284,0.319347,-0.311562,0.415033,-0.130086,-0.00109429,0.0169727,0.0533593,0.118553,0.327491,0.360158
1413393229555760384,-2.82802,0.420201,1.44925,-0.467602,0.478602,0.673023,0.315164,-0.315513,0.413326,-0.120065,-0.00109616,0.0169402,0.0533744,0.12505,0.323011,0.35938
1413393229605760512,-2.84353,0.440658,1.44363,-0.469571,0.481634,0.671878,0.310018,-0.300474,0.418229,-0.114326,-0.00105741,0.0169972,0.0534345,0.127874,0.323029,0.359991
1413393229655760384,-2.85892,0.461327,1.43812,-0.469907,0.484533,0.67191,0.30488,-0.307957,0.415225,-0.116023,-0.00108337,0.0170452,0.053441,0.129886,0.316886,0.362947
1413393229705760512,-2.87394,0.482278,1.43306,-0.468487,0.486225,0.673188,0.301537,-0.292288,0.428254,-0.108631,-0.00110383,0.0170128,0.0534743,0.137007,0.310757,0.36718
1413393229755760384,-2.88868,0.503742,1.42852,-0.466935,0.487657,0.674536,0.298603,-0.292485,0.433884,-0.0947226,-0.00116092,0.0169938,0.0535334,0.14071,0.301935,0.370604
1413393229805760512,-2.90325,0.525752,1.42407,-0.464189,0.489388,0.676554,0.29547,-0.285381,0.450781,-0.0835919,-0.001206,0.0169803,0.0535751,0.144164,0.296476,0.374601
1413393229855760384,-2.91722,0.548617,1.42019,-0.46079,0.490604,0.679169,0.292763,-0.273436,0.465857,-0.0667207,-0.00111359,0.0170184,0.0536045,0.145626,0.300868,0.374956
1413393229905760512,-2.93073,0.572122,1.41703,-0.458042,0.491586,0.681244,0.290599,-0.269735,0.476031,-0.0528634,-0.00109858,0.0170619,0.0536619,0.144326,0.300698,0.378474
1413393229955760384,-2.94422,0.596632,1.41521,-0.456303,0.49102,0.682906,0.290392,-0.271276,0.506823,-0.0436229,-0.00110258,0.0170667,0.0536767,0.143809,0.294451,0.378718
1413393230005760512,-2.95761,0.622593,1.41418,-0.454488,0.488956,0.684635,0.292639,-0.264148,0.537413,0.0018759,-0.00108674,0.0170882,0.0537354,0.140991,0.290774,0.381248
1413393230055760384,-2.97133,0.650094,1.41427,-0.45396,0.484059,0.686047,0.298241,-0.282558,0.562495,0.00137893,-0.0011401,0.0170703,0.0537857,0.142102,0.282314,0.383617
1413393230105760512,-2.98553,0.678729,1.41417,-0.453747,0.479584,0.687093,0.303342,-0.286107,0.581092,-0.0103731,-0.00114347,0.0171132,0.0538329,0.138821,0.277302,0.383976
1413393230155760384,-3.00027,0.708208,1.41365,-0.454001,0.476052,0.687619,0.307308,-0.301713,0.595239,-0.0139676,-0.0011293,0.0171798,0.0538715,0.135209,0.273366,0.385372
1413393230205760512,-3.0158,0.738121,1.41235,-0.453915,0.4729,0.688508,0.310295,-0.324486,0.594647,-0.0311051,-0.00114142,0.0172315,0.0539374,0.134438,0.269394,0.386447
1413393230255760384,-3.03236,0.768113,1.41062,-0.455398,0.47058,0.688162,0.312409,-0.339133,0.598043,-0.0467498,-0.00110544,0.0172526,0.0539746,0.134528,0.267831,0.387159
1413393230305760512,-3.04972,0.79791,1.40826,-0.457752,0.468946,0.687305,0.313313,-0.355288,0.596108,-0.0489849,-0.00108379,0.0173013,0.0540216,0.134457,0.265357,0.3878
1413393230355760384,-3.06778,0.827515,1.40471,-0.459534,0.469933,0.686446,0.3111,-0.364377,0.586628,-0.0808129,-0.00108929,0.0173312,0.054074,0.134446,0.262291,0.389264
1413393230405760512,-3.08645,0.857141,1.40098,-0.46215,0.470855,0.684904,0.309224,-0.375151,0.591957,-0.0833725,-0.00106374,0.0173034,0.0541309,0.139203,0.258098,0.391494
1413393230455760384,-3.10533,0.88713,1.39684,-0.463229,0.472947,0.683522,0.30747,-0.378546,0.609115,-0.0796392,-0.00107705,0.0172946,0.0541627,0.140817,0.252331,0.392031
1413393230505760512,-3.12431,0.917707,1.39273,-0.464161,0.477006,0.680857,0.305702,-0.380149,0.618022,-0.0602324,-0.00107411,0.0173026,0.0541942,0.1424,0.24702,0.39269
1413393230555760384,-3.14307,0.94909,1.38893,-0.463932,0.482372,0.677493,0.305103,-0.368349,0.627865,-0.0832906,-0.00106106,0.0173207,0.054245,0.141589,0.242056,0.394204
1413393230605760512,-3.16123,0.980998,1.38535,-0.463227,0.488819,0.673158,0.305507,-0.35536,0.647336,-0.0743742,-0.00104646,0.0173328,0.0542995,0.14321,0.238452,0.39768
1413393230655760384,-3.17912,1.01393,1.38257,-0.461522,0.496667,0.668154,0.306415,-0.348945,0.652758,-0.0524849,-0.00103112,0.0173352,0.0543364,0.14646,0.235364,0.401507
1413393230705760512,-3.19633,1.04747,1.38084,-0.458872,0.503636,0.663303,0.309542,-0.334377,0.678183,-0.002391,-0.0010262,0.0173047,0.054405,0.152384,0.231575,0.404562
1413393230755760384,-3.21228,1.08115,1.38129,-0.456345,0.5117,0.65733,0.312778,-0.308166,0.676927,0.00903005,-0.00103626,0.0172551,0.0544537,0.155567,0.226364,0.405772
1413393230805760512,-3.2273,1.11451,1.38224,-0.453396,0.519653,0.651202,0.316747,-0.295552,0.682211,0.0229281,-0.00102709,0.0171971,0.0544949,0.159422,0.222342,0.405155
1413393230855760384,-3.24145,1.14862,1.38335,-0.448908,0.52739,0.645398,0.322185,-0.264328,0.699222,0.0318758,-0.000987761,0.0171727,0.0545459,0.161516,0.2185,0.403826
1413393230905760512,-3.25445,1.18345,1.38523,-0.443574,0.534644,0.639505,0.329289,-0.250771,0.711777,0.0574622,-0.00102334,0.017177,0.0545923,0.157757,0.211551,0.405278
1413393230955760384,-3.26653,1.21907,1.38775,-0.436594,0.540162,0.635039,0.338138,-0.231068,0.720288,0.0687986,-0.00102881,0.0171585,0.0546277,0.155613,0.206226,0.406192
1413393231005760512,-3.27776,1.25522,1.39066,-0.429061,0.544303,0.631445,0.347733,-0.212449,0.725066,0.0814029,-0.00108796,0.0171761,0.0546899,0.151886,0.197951,0.407367
1413393231055760384,-3.28859,1.29171,1.39416,-0.421348,0.547082,0.629033,0.35705,-0.211668,0.737095,0.0708463,-0.00108808,0.0171351,0.0547094,0.151632,0.195434,0.408887
1413393231105760512,-3.29969,1.3285,1.3981,-0.415768,0.549105,0.626253,0.365279,-0.230205,0.736297,0.0706727,-0.00114371,0.0171325,0.0547684,0.147403,0.188232,0.408665
1413393231155760384,-3.3113,1.3657,1.40221,-0.410845,0.550813,0.624074,0.371945,-0.241278,0.742861,0.0861184,-0.00115096,0.0171052,0.0548281,0.145039,0.185357,0.409426
1413393231205760512,-3.32407,1.40302,1.40643,-0.407291,0.553436,0.62169,0.375932,-0.260884,0.752883,0.0884833,-0.00119437,0.0171183,0.0548452,0.137023,0.17974,0.408447
1413393231255760384,-3.33797,1.44067,1.41089,-0.404018,0.555029,0.620048,0.379808,-0.29982,0.752643,0.0859953,-0.00123944,0.0171012,0.0548914,0.134105,0.176171,0.408907
1413393231305760512,-3.35288,1.47794,1.41462,-0.403603,0.557384,0.617289,0.381289,-0.312651,0.745238,0.0451427,-0.00126515,0.0170881,0.0549561,0.131657,0.17288,0.40663
1413393231355760384,-3.36829,1.51498,1.41554,-0.404449,0.560138,0.614313,0.381163,-0.32662,0.746063,0.000757332,-0.00128294,0.0171092,0.0549926,0.128152,0.171708,0.406011
1413393231405760512,-3.38477,1.55236,1.41421,-0.407038,0.562948,0.610656,0.380143,-0.345593,0.752539,-0.0318178,-0.00130712,0.0171137,0.0550389,0.125312,0.169231,0.403931
1413393231455760384,-3.4019,1.58982,1.41099,-0.411839,0.565181,0.605724,0.379549,-0.341739,0.754931,-0.0592669,-0.00130752,0.0171309,0.0551033,0.122878,0.166481,0.402283
1413393231505760512,-3.4193,1.62737,1.40673,-0.41858,0.566248,0.599819,0.379963,-0.350729,0.746121,-0.0993845,-0.0013241,0.0171498,0.0551756,0.121513,0.163338,0.401653
1413393231555760384,-3.43679,1.66472,1.40052,-0.426961,0.565311,0.593509,0.381937,-0.354221,0.739893,-0.145913,-0.00132533,0.0171885,0.055203,0.12,0.161815,0.400199
1413393231605760512,-3.45365,1.70143,1.39254,-0.43478,0.564368,0.587381,0.383978,-0.328347,0.718489,-0.175843,-0.00130915,0.017229,0.0552379,0.119525,0.160244,0.399151
1413393231655760384,-3.46968,1.73672,1.38315,-0.439747,0.564318,0.582622,0.385643,-0.322511,0.687537,-0.19195,-0.00129257,0.0172482,0.055269,0.11895,0.158232,0.39822
1413393231705760512,-3.4848,1.7705,1.37323,-0.440904,0.564971,0.580057,0.387227,-0.293197,0.656003,-0.193426,-0.00129675,0.0172784,0.0553433,0.118629,0.155705,0.39914
1413393231755760384,-3.49859,1.80245,1.3633,-0.439164,0.567931,0.57801,0.387936,-0.257782,0.624084,-0.182524,-0.001265,0.0173156,0.0553418,0.115025,0.153039,0.398341
1413393231805760512,-3.5112,1.83278,1.35436,-0.436502,0.572362,0.576125,0.387231,-0.248924,0.583137,-0.17652,-0.00124846,0.0173662,0.0553819,0.113932,0.14977,0.398042
1413393231855760384,-3.5224,1.86143,1.34587,-0.434142,0.578459,0.573481,0.384742,-0.210146,0.553119,-0.167306,-0.00120701,0.0174408,0.0555002,0.11231,0.149475,0.398321
1413393231905760512,-3.53185,1.88895,1.33779,-0.429656,0.586587,0.570649,0.381669,-0.169385,0.534017,-0.146443,-0.00118473,0.0174765,0.0555501,0.110513,0.146791,0.397706
1413393231955760384,-3.53948,1.91546,1.33057,-0.42603,0.594312,0.566754,0.379581,-0.142707,0.5257,-0.136907,-0.00118964,0.0175383,0.0556154,0.108232,0.143625,0.396905
1413393232005760512,-3.54509,1.94113,1.32417,-0.422172,0.601736,0.562168,0.379014,-0.0947261,0.501726,-0.133565,-0.00118141,0.0175641,0.0555847,0.104644,0.139967,0.395357
1413393232055760384,-3.54844,1.96638,1.3183,-0.416345,0.607919,0.55845,0.381085,-0.0530469,0.504848,-0.101061,-0.0011215,0.0176475,0.0556187,0.101078,0.139014,0.393714
1413393232105760512,-3.55029,1.99118,1.31408,-0.410224,0.613459,0.554423,0.384709,-0.0220297,0.485795,-0.0802071,-0.00110582,0.0176619,0.0556502,0.0988876,0.136188,0.394794
1413393232155760384,-3.55041,2.01539,1.31005,-0.403958,0.61903,0.549621,0.389278,0.0178665,0.474438,-0.0861992,-0.00110848,0.0176824,0.0556247,0.0943911,0.133259,0.395539
1413393232205760512,-3.54867,2.03938,1.30604,-0.39749,0.622449,0.544827,0.397142,0.0470458,0.477573,-0.080076,-0.0014327,0.0176337,0.0556661,0.0905576,0.117651,0.395809
1413393232255760384,-3.5451,2.06326,1.3009,-0.391598,0.62667,0.53926,0.4039,0.0703156,0.472333,-0.111839,-0.00163986,0.0176228,0.055678,0.0852757,0.109225,0.396001
1413393232305760512,-3.54062,2.08671,1.29455,-0.385961,0.63114,0.53311,0.410475,0.103817,0.466919,-0.140758,-0.00179688,0.0177446,0.0556665,0.076372,0.10346,0.398332
1413393232355760384,-3.53491,2.11011,1.28696,-0.381293,0.637121,0.525609,0.415245,0.122451,0.466294,-0.172223,-0.00182404,0.017824,0.0556507,0.0721026,0.100558,0.397989
1413393232405760512,-3.52742,2.13358,1.27759,-0.375623,0.643242,0.519439,0.418724,0.149693,0.464005,-0.183204,-0.00188517,0.0178418,0.0554155,0.0684748,0.0989554,0.398244
1413393232455760384,-3.51893,2.15671,1.26705,-0.370048,0.649065,0.512984,0.422643,0.172139,0.456266,-0.216749,-0.00195756,0.0178973,0.0553811,0.0652566,0.0973512,0.398156
1413393232505760512,-3.50989,2.17966,1.25536,-0.365064,0.655166,0.506308,0.425602,0.188335,0.461432,-0.244391,-0.00193421,0.0178999,0.0553212,0.062824,0.0964976,0.397194
1413393232555760384,-3.49997,2.20297,1.24293,-0.360854,0.659953,0.500719,0.428401,0.205478,0.467783,-0.273346,-0.00198782,0.0179778,0.0553898,0.0612189,0.0960586,0.397312
1413393232605760512,-3.48927,2.22664,1.22857,-0.357195,0.663583,0.496533,0.430726,0.21507,0.464999,-0.297332,-0.00171809,0.0180904,0.0555135,0.0606966,0.105003,0.400358
1413393232655760384,-3.47791,2.24997,1.21445,-0.354985,0.667074,0.491849,0.432531,0.242967,0.466887,-0.270904,-0.00166303,0.0181261,0.0556041,0.0613524,0.105607,0.400219
1413393232705760512,-3.46563,2.27346,1.20141,-0.353147,0.669315,0.488321,0.434565,0.24734,0.47299,-0.258619,-0.00162069,0.018204,0.0557071,0.0615693,0.10637,0.400083
1413393232755760384,-3.4526,2.29702,1.18916,-0.350299,0.670519,0.486805,0.43671,0.267895,0.470644,-0.231749,-0.00158872,0.0181561,0.0557777,0.0655591,0.105713,0.400913
1413393232805760512,-3.43868,2.32057,1.17762,-0.348061,0.671961,0.485268,0.437992,0.296727,0.481999,-0.225266,-0.00157231,0.0181346,0.0557459,0.0639075,0.102482,0.40132
1413393232855760384,-3.42376,2.34495,1.16697,-0.347131,0.672635,0.483707,0.439421,0.302493,0.494976,-0.214767,-0.00156058,0.018254,0.055725,0.0568979,0.0999811,0.400643
1413393232905760512,-3.40818,2.36922,1.15652,-0.344879,0.673406,0.484007,0.439682,0.324606,0.492299,-0.202594,-0.00152104,0.0182369,0.0557166,0.052365,0.0958045,0.399431
1413393232955760384,-3.3914,2.39376,1.14786,-0.341319,0.672519,0.485594,0.442061,0.344785,0.495547,-0.156498,-0.00151235,0.0184305,0.055768,0.0435028,0.0943302,0.396752
1413393233005760512,-3.37407,2.41918,1.14077,-0.338074,0.67205,0.487464,0.443208,0.351251,0.512268,-0.123975,-0.00152509,0.0185043,0.0559195,0.0447553,0.0923778,0.401236
1413393233055760384,-3.35631,2.44552,1.13615,-0.334613,0.671078,0.490093,0.444406,0.359549,0.52422,-0.0834378,-0.00153297,0.018549,0.0560505,0.0547542,0.0907348,0.409133
1413393233105760512,-3.3381,2.47207,1.13307,-0.331523,0.670991,0.492322,0.44439,0.374409,0.520642,-0.0485109,-0.00150278,0.0185867,0.0562028,0.0611408,0.0890275,0.416723
1413393233155760384,-3.31951,2.49895,1.13198,-0.330128,0.670441,0.493631,0.444807,0.37277,0.536151,-0.00455262,-0.00145885,0.0186605,0.0563608,0.0660625,0.0879719,0.421231
1413393233205760512,-3.30084,2.52644,1.13294,-0.329318,0.669507,0.494114,0.446275,0.378125,0.554202,0.0477476,-0.00143252,0.0186822,0.0564274,0.0714492,0.0845178,0.425894
1413393233255760384,-3.28153,2.55402,1.13676,-0.328296,0.667531,0.493613,0.450523,0.396247,0.547561,0.0892746,-0.00142869,0.0186201,0.0563572,0.0746486,0.0802865,0.42425
1413393233305760512,-3.26194,2.58202,1.14274,-0.327785,0.66662,0.491235,0.454823,0.390731,0.561313,0.135086,-0.00144563,0.018617,0.0563054,0.0839433,0.0773744,0.426385
1413393233355760384,-3.24232,2.60986,1.15041,-0.327706,0.665371,0.487616,0.460565,0.397797,0.560985,0.189031,-0.00146041,0.0185836,0.0562678,0.0857025,0.074803,0.426757
1413393233405760512,-3.2225,2.63723,1.15989,-0.327858,0.665098,0.482355,0.466356,0.396619,0.543496,0.199863,-0.00149398,0.0185052,0.0561756,0.0908491,0.0723861,0.423596
1413393233455760384,-3.20295,2.66424,1.17109,-0.329257,0.66728,0.474183,0.470614,0.388499,0.539235,0.249014,-0.00151511,0.0184761,0.0561601,0.0936494,0.0717822,0.422889
1413393233505760512,-3.1837,2.6907,1.18506,-0.326109,0.669116,0.46896,0.475408,0.383366,0.508581,0.292744,-0.00154132,0.0184351,0.0561868,0.0961063,0.0702124,0.426277
1413393233555760384,-3.16461,2.71558,1.20021,-0.323102,0.673254,0.462406,0.478032,0.384372,0.485372,0.297741,-0.0015518,0.0184085,0.0561911,0.0969618,0.0698374,0.425649
1413393233605760512,-3.14514,2.74014,1.21635,-0.316349,0.677766,0.45771,0.480686,0.38248,0.489789,0.343012,-0.00155934,0.0184225,0.0562368,0.0981634,0.0723653,0.430154
1413393233655760384,-3.12619,2.76375,1.23377,-0.308282,0.683874,0.452898,0.481833,0.375001,0.482498,0.374783,-0.00155829,0.0184386,0.0562871,0.0987479,0.0748389,0.433005
1413393233705760512,-3.10815,2.78735,1.25246,-0.299698,0.69086,0.447457,0.482366,0.357938,0.478096,0.40585,-0.00155107,0.0184293,0.0563434,0.099795,0.0742425,0.436722
1413393233755760384,-3.09077,2.81157,1.27428,-0.291789,0.694695,0.441419,0.487246,0.340501,0.488483,0.462943,-0.00153999,0.0184195,0.0564002,0.098699,0.0730948,0.439423
1413393233805760512,-3.0745,2.83549,1.29774,-0.288153,0.699233,0.432369,0.491018,0.312291,0.47773,0.481768,-0.00153697,0.0184225,0.0564481,0.0999568,0.075021,0.438902
1413393233855760384,-3.05948,2.85982,1.32159,-0.285465,0.701799,0.423724,0.496434,0.282009,0.490029,0.466775,-0.00153562,0.0184392,0.0564838,0.101703,0.0752638,0.442386
1413393233905760512,-3.04554,2.88408,1.34515,-0.286219,0.704994,0.413686,0.499927,0.265197,0.486289,0.462862,-0.0015336,0.0184609,0.0565032,0.102025,0.0769098,0.444809
1413393233955760384,-3.03269,2.90761,1.36793,-0.284944,0.707907,0.403265,0.505027,0.26025,0.466714,0.454375,-0.00153808,0.018453,0.056526,0.10298,0.0751613,0.443326
1413393234005760512,-3.02088,2.93101,1.39018,-0.282962,0.712679,0.394801,0.506116,0.235025,0.463565,0.45829,-0.00153223,0.0184435,0.0565608,0.103364,0.0689127,0.448813
1413393234055760384,-3.00976,2.95369,1.41231,-0.280433,0.718111,0.386433,0.506303,0.223327,0.444821,0.445962,-0.00153206,0.0184272,0.0566162,0.106014,0.0626525,0.453062
1413393234105760512,-2.99935,2.97447,1.43269,-0.276588,0.724098,0.378204,0.506105,0.219786,0.419094,0.431465,-0.00153788,0.0183912,0.056646,0.104781,0.0579163,0.445935
1413393234155760384,-2.98867,2.99491,1.45256,-0.271955,0.73026,0.370932,0.505145,0.208849,0.40268,0.390083,-0.00154044,0.0183985,0.0566711,0.104554,0.055652,0.446801
1413393234205760512,-2.97726,3.01481,1.47105,-0.269986,0.735032,0.363218,0.504885,0.216415,0.378463,0.369022,-0.00153681,0.018414,0.0566992,0.108804,0.0570452,0.450775
1413393234255760384,-2.96581,3.03289,1.48906,-0.272345,0.737185,0.352257,0.508234,0.234813,0.346819,0.339538,-0.00153502,0.0184334,0.0567394,0.112576,0.0570019,0.452154
1413393234305760512,-2.95388,3.04921,1.50567,-0.27823,0.738092,0.338983,0.512737,0.244335,0.313644,0.31349,-0.00154082,0.0184489,0.0567536,0.114367,0.056056,0.451128
1413393234355760384,-2.94195,3.06348,1.5203,-0.285854,0.738754,0.324174,0.517148,0.250361,0.264158,0.288306,-0.0015528,0.0184418,0.0567698,0.119604,0.0520513,0.450405
1413393234405760512,-2.92968,3.07441,1.5331,-0.291216,0.739169,0.310735,0.521791,0.252938,0.202638,0.228076,-0.00155115,0.0184472,0.0568247,0.122949,0.0470936,0.44679
1413393234455760384,-2.91603,3.08334,1.54117,-0.295281,0.740445,0.298442,0.524865,0.235904,0.146136,0.184906,-0.0015781,0.018459,0.0568729,0.128022,0.0443082,0.449768
1413393234505760512,-2.90425,3.08804,1.54895,-0.294833,0.741498,0.288804,0.529004,0.232708,0.0619575,0.139437,-0.00159192,0.0184622,0.0569169,0.129822,0.0375207,0.448297
1413393234555760384,-2.89238,3.08865,1.55621,-0.289584,0.742873,0.281459,0.533912,0.244214,-0.0358073,0.176713,-0.00158606,0.0184771,0.0569751,0.132164,0.0333648,0.445629
1413393234605760512,-2.88018,3.0848,1.5641,-0.276272,0.743163,0.279548,0.541513,0.260805,-0.110732,0.169239,-0.00157974,0.0184757,0.057013,0.134395,0.0277397,0.445155
1413393234655760384,-2.86672,3.0778,1.57533,-0.254426,0.743686,0.28374,0.549263,0.264837,-0.195129,0.229702,-0.00157566,0.0185112,0.0570816,0.136907,0.0200506,0.447725
1413393234705760512,-2.85415,3.06479,1.59069,-0.231485,0.745076,0.287531,0.55552,0.242656,-0.271591,0.368455,-0.00156188,0.0185121,0.0570968,0.135226,0.0227168,0.435877
1413393234755760384,-2.84277,3.05014,1.60997,-0.211635,0.749279,0.289184,0.556924,0.211952,-0.310365,0.38429,-0.00154871,0.0185226,0.0571461,0.136891,0.0218688,0.436579
1413393234805760512,-2.83259,3.03386,1.62961,-0.192019,0.754799,0.290505,0.55589,0.184802,-0.32361,0.377039,-0.00154174,0.018541,0.0571731,0.136846,0.0216749,0.434515
1413393234855760384,-2.82342,3.01602,1.64702,-0.178572,0.762343,0.286673,0.552055,0.163665,-0.329698,0.305756,-0.00152264,0.0185337,0.0571701,0.132565,0.0300986,0.426667
1413393234905760512,-2.81519,3.00005,1.66143,-0.17077,0.769936,0.278044,0.548387,0.144479,-0.323613,0.219735,-0.00150603,0.0185268,0.0571343,0.132629,0.0352179,0.432003
1413393234955760384,-2.81035,3.00296,1.6855,-0.159791,0.78493,0.256185,0.541037,0.11038,-0.312623,0.11935,-0.00092606,0.0188274,0.0563484,0.182263,0.094094,0.567013
1413393235005760512,-2.80634,2.98827,1.68924,-0.15787,0.79119,0.242765,0.538666,0.0887015,-0.302471,0.0211557,-0.000893158,0.0188524,0.0563561,0.178689,0.0874637,0.567051
1413393235055760384,-2.80268,2.97379,1.68766,-0.157373,0.796441,0.228031,0.53751,0.0789128,-0.297481,-0.0751591,-0.000870183,0.0188711,0.0563888,0.175805,0.0814885,0.568962
1413393235105760512,-2.79955,2.95892,1.68144,-0.155582,0.80094,0.213706,0.537234,0.0716892,-0.301988,-0.16253,-0.000852401,0.0188837,0.0564221,0.173881,0.0763566,0.565937
1413393235155760384,-2.79695,2.94416,1.67201,-0.151193,0.80519,0.201124,0.536991,0.0760456,-0.305837,-0.232538,-0.000846608,0.0189129,0.0564409,0.172363,0.0660401,0.567266
1413393235205760512,-2.79407,2.93009,1.65954,-0.141936,0.807752,0.191463,0.539197,0.0799472,-0.309018,-0.24884,-0.000799652,0.0189372,0.0564787,0.169779,0.0540255,0.563403
1413393235255760384,-2.82043,2.93171,1.64014,-0.120812,0.80941,0.180702,0.545533,0.0786526,-0.315461,-0.259927,-0.000190618,0.0189706,0.0566228,0.145668,-0.0564117,0.497789
1413393235305760512,-2.81629,2.91796,1.62905,-0.10578,0.812652,0.17577,0.545447,0.0838611,-0.307727,-0.234309,-0.00013784,0.0190259,0.0566007,0.148953,-0.0577047,0.51115
1413393235355760384,-2.82751,2.92458,1.64045,-0.0828081,0.81807,0.170852,0.542876,0.0805105,-0.299326,-0.216713,0.000281859,0.0194849,0.0565422,0.183683,-0.192777,0.5828
1413393235405760512,-2.82272,2.91214,1.63214,-0.07128,0.821458,0.16879,0.540033,0.0828079,-0.272944,-0.191627,0.000287683,0.0195309,0.0565782,0.185992,-0.206493,0.591824
1413393235455760384,-2.81736,2.90023,1.62396,-0.0621456,0.824142,0.166509,0.537776,0.0994054,-0.240711,-0.169829,0.000287033,0.0195551,0.0566038,0.188523,-0.221283,0.598488
1413393235505760512,-2.81185,2.88935,1.61616,-0.0539572,0.826843,0.165476,0.534825,0.119142,-0.200613,-0.136297,0.000286409,0.0195503,0.0566315,0.188572,-0.228935,0.594432
1413393235555760384,-2.805,2.88165,1.60997,-0.0435421,0.825946,0.166356,0.536884,0.143259,-0.146678,-0.0942322,0.000283063,0.0195989,0.0566624,0.188938,-0.236827,0.594701
1413393235605760512,-2.7978,2.87502,1.60384,-0.0324012,0.823359,0.168501,0.54096,0.145967,-0.0940002,-0.111827,0.000274722,0.0195688,0.0566566,0.188573,-0.236553,0.583586
1413393235655760384,-2.79004,2.87142,1.59812,-0.024223,0.821105,0.16797,0.544965,0.151462,-0.034735,-0.0906817,0.000264004,0.0195584,0.0567127,0.187275,-0.236872,0.576689
1413393235705760512,-2.78179,2.87089,1.59281,-0.0191451,0.81849,0.166925,0.549404,0.140262,0.0318559,-0.0924956,0.000244274,0.0195662,0.056739,0.187734,-0.236825,0.571225
1413393235755760384,-2.77383,2.87351,1.5878,-0.0186609,0.817528,0.163325,0.551928,0.127346,0.0922519,-0.082526,0.000219044,0.0195727,0.0567571,0.187121,-0.237348,0.571439
1413393235805760512,-2.76717,2.87909,1.58337,-0.0217678,0.817056,0.158475,0.553924,0.106413,0.151324,-0.0751744,0.00021431,0.0195724,0.0567769,0.186446,-0.238588,0.567577
1413393235855760384,-2.76158,2.8873,1.57929,-0.0314148,0.816966,0.149883,0.555982,0.0913612,0.189884,-0.0793117,0.000186219,0.0195865,0.0568145,0.182507,-0.241382,0.564046
1413393235905760512,-2.75704,2.89726,1.57539,-0.0426,0.817245,0.138969,0.557659,0.0705693,0.214051,-0.0834636,0.00017548,0.0195958,0.0568526,0.181288,-0.24588,0.559627
1413393235955760384,-2.75333,2.90856,1.57177,-0.0528086,0.817663,0.12772,0.558862,0.060922,0.232072,-0.0744575,0.000161934,0.0196061,0.0568903,0.177534,-0.25273,0.555678
1413393236005760512,-2.74992,2.91963,1.56872,-0.0588248,0.817143,0.117964,0.561161,0.0487662,0.225295,-0.0513673,0.000136915,0.0196014,0.0569088,0.173473,-0.256554,0.547461
1413393236055760384,-2.74681,2.9305,1.56586,-0.0638085,0.817215,0.107105,0.562688,0.051398,0.21542,-0.0519429,0.000116168,0.0196171,0.056928,0.167737,-0.260283,0.542478
1413393236105760512,-2.74298,2.94059,1.56302,-0.0652949,0.817707,0.0972313,0.563593,0.0779132,0.205719,-0.015338,0.000106086,0.0196293,0.0569594,0.163696,-0.261419,0.536206
1413393236155760384,-2.7389,2.94959,1.56322,-0.063934,0.818354,0.0875963,0.56439,0.051261,0.159876,-0.00573818,9.33285e-05,0.0196346,0.0569949,0.159379,-0.264124,0.531966
1413393236205760512,-2.736,2.95607,1.56276,-0.056663,0.820039,0.0804597,0.563783,0.0398309,0.132999,0.0285981,7.9275e-05,0.0196174,0.0570479,0.155264,-0.263855,0.52056
1413393236255760384,-2.7335,2.96164,1.56488,-0.0459236,0.821921,0.0757054,0.562677,0.0163948,0.123038,0.0697882,6.80864e-05,0.019616,0.0570841,0.152276,-0.262159,0.514437
1413393236305760512,-2.73198,2.96586,1.56684,-0.0325421,0.823279,0.0715692,0.562167,0.0277329,0.0904508,0.0605535,4.14803e-05,0.0195898,0.0571584,0.144656,-0.264192,0.506951
1413393236355760384,-2.72969,2.96943,1.56975,-0.0211682,0.824182,0.065047,0.562179,0.0288331,0.0927772,0.10026,2.31975e-05,0.0195861,0.0571967,0.139828,-0.260661,0.502248
1413393236405760512,-2.72786,2.97293,1.57315,-0.0136426,0.825443,0.0570442,0.56143,0.0281431,0.108124,0.103604,-1.08294e-05,0.0195682,0.0572773,0.134451,-0.256228,0.490592
1413393236455760384,-2.72424,2.97335,1.57173,-0.00992406,0.825512,0.0478182,0.562268,0.0188169,0.102076,0.0952103,-0.000127923,0.0194103,0.0573681,0.121708,-0.218505,0.46189
1413393236505760512,-2.72108,2.97457,1.57233,-0.00687254,0.827418,0.0378986,0.560265,0.0234493,0.0965948,0.0965344,-0.000211079,0.0193116,0.05749,0.110918,-0.189633,0.439062
1413393236555760384,-2.71622,2.97568,1.57526,-0.00335415,0.83032,0.0291203,0.556516,0.033988,0.100777,0.103362,-0.0003539,0.0192179,0.057586,0.102911,-0.17024,0.42485
1413393236605760512,-2.71353,2.97957,1.5802,0.00173014,0.834791,0.019203,0.55023,0.0504021,0.106468,0.103968,-0.000388083,0.0192198,0.0576495,0.0969014,-0.171885,0.419185
1413393236655760384,-2.71051,2.98509,1.58445,0.00642745,0.838598,0.00920538,0.544635,0.0800288,0.108041,0.0512493,-0.000406513,0.0192379,0.0576796,0.0939001,-0.17752,0.416426
1413393236705760512,-2.70684,2.99228,1.58586,0.00956864,0.84032,-2.98054e-05,0.542007,0.0890807,0.112115,-0.00262957,-0.000411079,0.0192554,0.0577111,0.0917753,-0.186942,0.415715
1413393236755760384,-2.7025,2.99856,1.58577,0.010499,0.840568,-0.0101978,0.541508,0.108475,0.101846,-0.0462543,-0.000424263,0.0192889,0.0577519,0.0899546,-0.19737,0.413959
1413393236805760512,-2.70558,3.00813,1.58406,0.0155344,0.839211,-0.0263385,0.542946,0.127039,0.0896288,-0.0886945,-2.22953e-05,0.0194282,0.0576216,0.0924212,-0.245976,0.420728
1413393236855760384,-2.70012,3.01345,1.58062,0.0170975,0.83724,-0.0347624,0.545462,0.157249,0.0728522,-0.0792375,1.30066e-05,0.0194462,0.0576486,0.0908253,-0.25203,0.420794
1413393236905760512,-2.69385,3.01794,1.57858,0.0204853,0.835162,-0.0413252,0.548067,0.18284,0.0490778,-0.0120888,6.96164e-05,0.0194908,0.0576554,0.0883833,-0.264168,0.425413
1413393236955760384,-2.6838,3.01944,1.57839,0.0244254,0.831968,-0.0438912,0.552545,0.213317,0.0177829,0.0260805,6.51694e-05,0.0194912,0.0576713,0.0837957,-0.267189,0.43002
1413393237005760512,-2.67187,3.01989,1.5823,0.0294772,0.82902,-0.0436052,0.556737,0.236441,0.00584153,0.110807,4.63668e-05,0.0195064,0.0577045,0.0815215,-0.26695,0.437424
1413393237055760384,-2.65973,3.01884,1.58801,0.0345729,0.827013,-0.0423208,0.559521,0.237255,-0.0128742,0.176388,2.80294e-05,0.019492,0.0577096,0.080319,-0.260566,0.440304
1413393237105760512,-2.64734,3.01849,1.59984,0.0421583,0.825137,-0.038301,0.562054,0.246795,-0.0103832,0.248316,2.3573e-05,0.0195151,0.0577268,0.0802593,-0.268178,0.44112
1413393237155760384,-2.63429,3.01805,1.61173,0.0502259,0.822645,-0.0327653,0.565385,0.251553,0.00246466,0.232421,3.14356e-05,0.019514,0.0577498,0.0804909,-0.26578,0.444599
1413393237205760512,-2.62159,3.01821,1.62256,0.0578591,0.82099,-0.0269066,0.567366,0.246227,0.0176242,0.188383,2.94665e-05,0.0195385,0.0577994,0.079716,-0.270833,0.446061
1413393237255760384,-2.60838,3.01883,1.62938,0.0629255,0.819821,-0.0226128,0.568702,0.25066,0.0193821,0.118473,2.28727e-05,0.0195487,0.0578372,0.0766084,-0.27065,0.448418
1413393237305760512,-2.59543,3.02004,1.63304,0.066765,0.82011,-0.0188634,0.567985,0.236715,0.0455223,0.0630721,1.41696e-05,0.0195521,0.0578782,0.0741317,-0.271169,0.44896
1413393237355760384,-2.58362,3.02288,1.63423,0.0689746,0.820475,-0.0154361,0.567297,0.22081,0.0750255,-0.00698167,-4.51229e-06,0.0195722,0.0579348,0.0715951,-0.27575,0.451295
1413393237405760512,-2.57239,3.02703,1.63194,0.0695238,0.81984,-0.0134436,0.568197,0.210274,0.0926538,-0.073853,-1.63732e-05,0.0195863,0.0579906,0.070031,-0.280505,0.451389
1413393237455760384,-2.56155,3.03271,1.62695,0.0666221,0.819422,-0.0133949,0.569149,0.204322,0.136095,-0.103062,-4.14337e-05,0.0196028,0.0580579,0.0683867,-0.285361,0.448139
1413393237505760512,-2.55131,3.04023,1.62158,0.0598912,0.818998,-0.0159992,0.570439,0.203417,0.165215,-0.119962,-4.52427e-05,0.0196106,0.0580983,0.0676535,-0.286887,0.447226
1413393237555760384,-2.54168,3.04931,1.61659,0.0512406,0.819215,-0.020016,0.570842,0.195398,0.182794,-0.1137,-5.6479e-05,0.0196321,0.0581632,0.0666602,-0.293303,0.443972
1413393237605760512,-2.53222,3.05918,1.61213,0.0423214,0.818739,-0.0243015,0.572088,0.193601,0.186367,-0.113593,-7.45621e-05,0.0196329,0.0582161,0.0655642,-0.302406,0.437344
1413393237655760384,-2.52311,3.06903,1.60645,0.0335508,0.819833,-0.0284919,0.570909,0.187533,0.179722,-0.0999085,-6.94174e-05,0.0196575,0.0582587,0.0604943,-0.312733,0.430034
1413393237705760512,-2.51414,3.07802,1.60126,0.0262283,0.820197,-0.0319247,0.570588,0.181398,0.164885,-0.105172,-9.20228e-05,0.0196576,0.058298,0.0576289,-0.31796,0.425382
1413393237755760384,-2.50548,3.0865,1.59667,0.0213963,0.820947,-0.0330526,0.569645,0.171619,0.144981,-0.090938,-8.999e-05,0.0196836,0.058368,0.0557821,-0.325245,0.417485
1413393237805760512,-2.49703,3.09344,1.59226,0.018257,0.821696,-0.0334606,0.56865,0.175825,0.121326,-0.0662211,-8.70344e-05,0.0196813,0.0583983,0.052956,-0.329855,0.411156
1413393237855760384,-2.48883,3.09985,1.58903,0.0185681,0.823068,-0.0314155,0.56677,0.178624,0.0978179,-0.0742203,-9.76246e-05,0.0197121,0.058492,0.0488371,-0.342857,0.406923
1413393237905760512,-2.48056,3.10555,1.58764,0.0207813,0.824721,-0.0281921,0.564455,0.175761,0.0749089,-0.0489464,-0.000110522,0.0197383,0.0585745,0.0415143,-0.362139,0.396682
1413393237955760384,-2.47246,3.10928,1.58579,0.0229886,0.825614,-0.0255944,0.563185,0.172251,0.0491449,-0.0568736,-0.000122509,0.0197648,0.0586432,0.0360466,-0.369824,0.383027
1413393238005760512,-2.46448,3.11257,1.58333,0.0303482,0.828176,-0.0193887,0.55931,0.177464,0.0348628,-0.0568298,-0.000140851,0.0198109,0.0587538,0.0293654,-0.385122,0.367885
1413393238055760384,-2.45522,3.11473,1.58108,0.0372083,0.830127,-0.0136097,0.556165,0.200797,0.0359978,-0.0386575,-0.000142089,0.0198173,0.0588401,0.0271903,-0.39537,0.355626
1413393238105760512,-2.44529,3.11684,1.57929,0.0424447,0.832035,-0.0097111,0.553013,0.219419,0.0315811,-0.0350927,-0.000167676,0.0198409,0.0588847,0.022385,-0.407054,0.346236
1413393238155760384,-2.43431,3.11912,1.57889,0.0477063,0.832204,-0.00701047,0.552368,0.234408,0.0313886,-0.0072967,-0.000180023,0.0198382,0.0589608,0.0226713,-0.414255,0.335932
1413393238205760512,-2.422,3.12194,1.57904,0.051921,0.832655,-0.00527826,0.551328,0.264958,0.0545933,0.00406807,-0.000164075,0.0198353,0.0589736,0.0214886,-0.419885,0.336593
1413393238255760384,-2.40866,3.12556,1.58149,0.0550818,0.83273,-0.00429806,0.550917,0.269133,0.0758459,0.0614542,-0.000182162,0.019879,0.0590536,0.0161007,-0.429131,0.334491
1413393238305760512,-2.39427,3.13002,1.58539,0.0578949,0.832996,-0.00506764,0.550219,0.303918,0.089905,0.128719,-0.000183438,0.0199086,0.0590986,0.014424,-0.433351,0.328573
1413393238355760384,-2.37797,3.13576,1.5932,0.0588413,0.833344,-0.00619419,0.549579,0.336474,0.124103,0.162813,-0.000185942,0.0199299,0.0591592,0.0147038,-0.440251,0.321364
1413393238405760512,-2.35979,3.14261,1.60358,0.0591196,0.832887,-0.00766387,0.550223,0.377988,0.146539,0.227137,-0.000202333,0.0199565,0.0592125,0.0148138,-0.444579,0.317258
1413393238455760384,-2.34001,3.15087,1.61659,0.0566152,0.831613,-0.0111338,0.552351,0.398145,0.167836,0.249437,-0.000201573,0.0199514,0.0592884,0.0156532,-0.449118,0.310092
1413393238505760512,-2.31943,3.15956,1.6283,0.0506079,0.830567,-0.0173067,0.554344,0.415534,0.179506,0.212629,-0.000218937,0.0199623,0.0593224,0.0153544,-0.453565,0.308826
1413393238555760384,-2.29768,3.16886,1.63703,0.0431787,0.828328,-0.024428,0.558042,0.420996,0.183453,0.154992,-0.000230857,0.0199785,0.0593436,0.0171573,-0.459074,0.306033
1413393238605760512,-2.27514,3.17759,1.64252,0.0347049,0.82621,-0.0318969,0.561387,0.439533,0.166455,0.0980754,-0.000246864,0.0199865,0.059393,0.0168113,-0.46178,0.309813
1413393238655760384,-2.2524,3.18526,1.64679,0.0269168,0.824834,-0.0388588,0.563396,0.449734,0.141002,0.0590705,-0.000262631,0.0199852,0.0594083,0.0189299,-0.46193,0.305711
1413393238705760512,-2.22891,3.19172,1.64705,0.0208347,0.823658,-0.0441865,0.564978,0.4509,0.111598,-0.00189308,-0.000290803,0.0199871,0.0594524,0.0212925,-0.460864,0.302299
1413393238755760384,-2.20563,3.19634,1.64629,0.016764,0.822853,-0.048027,0.565973,0.447974,0.069842,-0.038282,-0.000306116,0.0199987,0.0594787,0.0246072,-0.467979,0.308002
1413393238805760512,-2.18315,3.19835,1.64427,0.0155491,0.821985,-0.0496809,0.567124,0.444029,0.0321322,-0.0498849,-0.000337282,0.0200054,0.0595112,0.0251609,-0.468172,0.306476
1413393238855760384,-2.16086,3.19846,1.64155,0.0174483,0.821744,-0.0489308,0.567484,0.437419,-0.0141612,-0.0392724,-0.000352001,0.0200008,0.0595348,0.0253507,-0.462522,0.303047
1413393238905760512,-2.13891,3.19649,1.63936,0.0222652,0.82174,-0.0460208,0.567565,0.442818,-0.0520908,-0.0270228,-0.00035961,0.0200059,0.0595794,0.0258627,-0.458832,0.29512
1413393238955760384,-2.11646,3.19338,1.63862,0.030731,0.822132,-0.0404493,0.567026,0.432663,-0.0830707,-0.00974272,-0.000355554,0.0200021,0.0595905,0.033177,-0.460671,0.293784
1413393239005760512,-2.09445,3.1887,1.6388,0.0399264,0.821913,-0.0347997,0.567146,0.432983,-0.107477,0.00958863,-0.000365812,0.0199998,0.0596342,0.0348362,-0.463572,0.292081
1413393239055760384,-2.07262,3.18324,1.63834,0.0476384,0.822234,-0.0292679,0.566397,0.442108,-0.0922776,0.00537551,-0.00037129,0.0199779,0.0596504,0.0344551,-0.463071,0.286589
1413393239105760512,-2.0504,3.17807,1.63819,0.0539465,0.822182,-0.0251698,0.566103,0.43975,-0.105401,-0.00518027,-0.000374097,0.0199922,0.0596928,0.0352011,-0.457812,0.291423
1413393239155760384,-2.02805,3.17353,1.63796,0.0583673,0.821869,-0.0222251,0.566243,0.448621,-0.0833941,0.013912,-0.000398148,0.0199655,0.0597333,0.0359764,-0.463396,0.283348
1413393239205760512,-2.00534,3.17002,1.63797,0.0622046,0.822211,-0.0191412,0.565449,0.458125,-0.0591735,-0.00526309,-0.00040394,0.0199895,0.0597796,0.0319688,-0.463378,0.281052
1413393239255760384,-1.98259,3.16708,1.6384,0.0641282,0.821792,-0.0184798,0.565866,0.454865,-0.0639886,0.00314465,-0.000393717,0.0200051,0.059823,0.0327064,-0.463283,0.284114
1413393239305760512,-1.95939,3.16471,1.63852,0.0666454,0.821992,-0.0173748,0.56532,0.464452,-0.0356358,0.0104254,-0.000406651,0.0200271,0.0598523,0.0414184,-0.463684,0.287683
1413393239355760384,-1.93577,3.16339,1.63871,0.0673664,0.822652,-0.0165855,0.564296,0.470492,-0.0135339,0.0181531,-0.00041161,0.0200096,0.0598961,0.050812,-0.463071,0.287486
1413393239405760512,-1.91186,3.1628,1.63934,0.0677636,0.822874,-0.016851,0.563918,0.477281,-0.00271678,0.0186338,-0.000425144,0.0200091,0.0599138,0.05718,-0.460046,0.287944
1413393239455760384,-1.88751,3.16347,1.64035,0.0670631,0.823442,-0.0176159,0.563148,0.481893,0.0300738,0.0194837,-0.000422653,0.0200024,0.059955,0.0602491,-0.458604,0.283721
1413393239505760512,-1.86288,3.16526,1.64236,0.069016,0.823467,-0.015864,0.562928,0.491583,0.0466374,0.0479387,-0.000429421,0.0199898,0.0599834,0.059902,-0.457324,0.282772
1413393239555760384,-1.83804,3.16837,1.64457,0.0668249,0.82381,-0.0176042,0.562638,0.493022,0.0732708,0.046578,-0.000442875,0.0199914,0.0600065,0.055175,-0.45824,0.282081
1413393239605760512,-1.8132,3.17305,1.64744,0.0627256,0.82424,-0.0198137,0.562407,0.499521,0.109532,0.0567994,-0.000441206,0.0200026,0.0600394,0.0493379,-0.460293,0.276448
1413393239655760384,-1.78809,3.17868,1.65098,0.0555404,0.824161,-0.0247533,0.563082,0.510008,0.111087,0.0818839,-0.00045649,0.0200196,0.0600571,0.0477415,-0.462119,0.27577
1413393239705760512,-1.76224,3.1842,1.65476,0.0451141,0.824179,-0.0320571,0.563619,0.522644,0.10243,0.082819,-0.000469737,0.0200351,0.0600775,0.045619,-0.464042,0.278389
1413393239755760384,-1.73568,3.18912,1.65888,0.0364069,0.823927,-0.0377581,0.564263,0.535579,0.0940915,0.0758462,-0.000472698,0.0200426,0.0601134,0.0438531,-0.463673,0.278298
1413393239805760512,-1.70872,3.19289,1.66288,0.0309698,0.823953,-0.0412953,0.564303,0.541781,0.0561646,0.0831686,-0.000475501,0.0200573,0.06014,0.0419286,-0.464541,0.278427
1413393239855760384,-1.68187,3.19521,1.66655,0.0282075,0.824859,-0.0433483,0.562968,0.540529,0.0365906,0.0633782,-0.000479094,0.0200719,0.0601647,0.0398158,-0.461581,0.279975
1413393239905760512,-1.65468,3.19647,1.67033,0.0300242,0.825551,-0.0417613,0.561978,0.547627,0.0139594,0.0833446,-0.000482779,0.0201024,0.0602051,0.0394016,-0.460759,0.279518
1413393239955760384,-1.62704,3.19663,1.67434,0.0315325,0.825646,-0.0405056,0.561849,0.558955,-0.0104169,0.0956237,-0.000486249,0.0201036,0.0602368,0.0402355,-0.463208,0.277454
1413393240005760512,-1.59882,3.1956,1.67879,0.0356979,0.824957,-0.0373188,0.562832,0.567994,-0.0294987,0.0925338,-0.000497368,0.0200844,0.0602796,0.042514,-0.463912,0.277713
1413393240055760384,-1.57031,3.19382,1.68365,0.0408008,0.824294,-0.0329143,0.56373,0.568675,-0.0432875,0.101209,-0.000502956,0.0200806,0.0603105,0.0431345,-0.462181,0.279224
1413393240105760512,-1.54167,3.19175,1.68918,0.0479422,0.822778,-0.0273093,0.565679,0.569557,-0.0568181,0.111056,-0.000502525,0.0200989,0.0603439,0.0444244,-0.462492,0.280687
1413393240155760384,-1.51317,3.18959,1.69421,0.0539873,0.821667,-0.0220275,0.566978,0.569995,-0.0461642,0.0788954,-0.000513809,0.0201025,0.0603798,0.0457728,-0.464679,0.278776
1413393240205760512,-1.48503,3.18749,1.69738,0.0579474,0.820669,-0.0181746,0.568167,0.556789,-0.0355471,0.0381689,-0.000529668,0.0200955,0.0604047,0.0453328,-0.465201,0.282782
1413393240255760384,-1.45709,3.18582,1.69795,0.0607406,0.821007,-0.0154242,0.567468,0.555935,-0.0229551,-0.014421,-0.000524437,0.0201026,0.0604243,0.047322,-0.462041,0.282362
1413393240305760512,-1.42936,3.18507,1.69549,0.0598216,0.821165,-0.0156362,0.567331,0.55749,-0.000249131,-0.0724927,-0.000524518,0.0201113,0.0604492,0.0479243,-0.461347,0.282981
1413393240355760384,-1.40133,3.18543,1.69055,0.0579095,0.821128,-0.0165289,0.567559,0.55871,0.0090968,-0.128882,-0.000534025,0.0201362,0.0604782,0.0497977,-0.462542,0.283346
1413393240405760512,-1.37298,3.18634,1.68293,0.0533352,0.820938,-0.019692,0.56818,0.571873,0.0131152,-0.171483,-0.000530807,0.0201402,0.0605146,0.0514229,-0.466304,0.286668
1413393240455760384,-1.34457,3.1869,1.67342,0.0491978,0.820348,-0.0221516,0.569314,0.567486,0.00674133,-0.211858,-0.000546009,0.0201256,0.0605366,0.052769,-0.468032,0.287661
1413393240505760512,-1.31665,3.18725,1.66218,0.0432228,0.820181,-0.0264323,0.569857,0.547569,0.00361857,-0.221759,-0.000549065,0.0201444,0.0605715,0.0541637,-0.46598,0.290314
1413393240555760384,-1.28962,3.18741,1.65212,0.0387444,0.819591,-0.0296958,0.570865,0.535405,-0.00460892,-0.183129,-0.000549643,0.0201439,0.0605973,0.0542637,-0.466482,0.29344
1413393240605760512,-1.26313,3.18664,1.64468,0.0351514,0.819228,-0.0325242,0.571465,0.514406,-0.0130936,-0.133881,-0.000558277,0.0201374,0.060632,0.0553556,-0.465008,0.294057
1413393240655760384,-1.23674,3.18542,1.63977,0.0343078,0.819368,-0.0339018,0.571236,0.536076,-0.0247007,-0.0782294,-0.000552251,0.0201458,0.0606535,0.0549775,-0.464998,0.296142
1413393240705760512,-1.20953,3.18397,1.63913,0.0353537,0.819529,-0.0345618,0.570901,0.555283,-0.0352367,0.0525071,-0.000555843,0.020148,0.0606788,0.0515087,-0.464593,0.295907
1413393240755760384,-1.18192,3.1822,1.64353,0.0394459,0.8187,-0.0332115,0.571902,0.542442,-0.0344478,0.0992169,-0.000561592,0.0201572,0.0607117,0.0487343,-0.464047,0.294943
1413393240805760512,-1.15492,3.18018,1.6489,0.0438314,0.817128,-0.0317735,0.573908,0.542707,-0.0407876,0.119586,-0.000557657,0.0201643,0.0607408,0.0455345,-0.465008,0.292606
1413393240855760384,-1.12786,3.17812,1.65356,0.049408,0.815509,-0.0291599,0.575895,0.538003,-0.0396939,0.0924151,-0.000555035,0.0201797,0.0607599,0.0400901,-0.465038,0.28958
1413393240905760512,-1.1009,3.17543,1.65633,0.0527219,0.812824,-0.0285528,0.579415,0.524871,-0.057505,0.0427481,-0.00056675,0.0202029,0.0607802,0.0362021,-0.46307,0.290988
1413393240955760384,-1.07536,3.17252,1.65666,0.0559243,0.810047,-0.0281843,0.583012,0.491973,-0.0586757,-0.018507,-0.000573159,0.0202096,0.0607879,0.0329263,-0.464468,0.291282
1413393241005760512,-1.05088,3.16971,1.6541,0.0582212,0.807435,-0.0278435,0.586417,0.484707,-0.0554139,-0.0676141,-0.000577943,0.020231,0.0608071,0.0308022,-0.46351,0.291126
1413393241055760384,-1.02674,3.16697,1.6493,0.0585197,0.805144,-0.029145,0.589466,0.467606,-0.0596049,-0.117155,-0.000586448,0.0202426,0.060826,0.0292791,-0.462386,0.290092
1413393241105760512,-1.00385,3.16448,1.64143,0.0558204,0.804347,-0.0326177,0.590633,0.442644,-0.0489975,-0.18299,-0.000571282,0.0202376,0.0608616,0.0292218,-0.461373,0.28985
1413393241155760384,-0.982561,3.162,1.63122,0.0513264,0.804282,-0.0375398,0.590836,0.410123,-0.0506428,-0.234535,-0.000570476,0.0202383,0.060892,0.0269974,-0.460761,0.287773
1413393241205760512,-0.962372,3.15941,1.61878,0.046631,0.804993,-0.0423963,0.589928,0.39367,-0.0519388,-0.255233,-0.000574284,0.0202316,0.0609108,0.0249137,-0.460037,0.288902
1413393241255760384,-0.943322,3.15656,1.60609,0.0425684,0.806192,-0.047043,0.588243,0.367766,-0.0620739,-0.258207,-0.000580925,0.0202382,0.0609349,0.0249333,-0.461109,0.28995
1413393241305760512,-0.925387,3.15325,1.5936,0.0396092,0.808394,-0.0510109,0.585088,0.351124,-0.0782984,-0.240074,-0.000587508,0.0202221,0.0609565,0.0254079,-0.459943,0.288915
1413393241355760384,-0.908173,3.14903,1.5811,0.0398664,0.81358,-0.0527922,0.577678,0.335182,-0.0911861,-0.235591,-0.00059347,0.0202353,0.0609919,0.0262681,-0.462247,0.287752
1413393241405760512,-0.891353,3.14401,1.56979,0.0398242,0.817102,-0.0545232,0.572527,0.329589,-0.116004,-0.223568,-0.000592862,0.020255,0.0610336,0.0272875,-0.462124,0.287926
1413393241455760384,-0.874773,3.13775,1.55952,0.0427221,0.819637,-0.0541696,0.568714,0.326664,-0.138449,-0.188651,-0.000596509,0.0202711,0.0610638,0.0296711,-0.461236,0.289152
1413393241505760512,-0.858327,3.13089,1.55067,0.0472454,0.82078,-0.0517549,0.56693,0.325671,-0.14052,-0.154765,-0.000595945,0.0202646,0.0610835,0.030726,-0.460828,0.287104
1413393241555760384,-0.841642,3.12352,1.54263,0.0522935,0.820308,-0.0487776,0.567434,0.329758,-0.162527,-0.15003,-0.000624783,0.0202783,0.0610999,0.0305402,-0.460773,0.287959
1413393241605760512,-0.824752,3.11572,1.53517,0.05803,0.818713,-0.0449915,0.569488,0.333724,-0.159201,-0.150099,-0.000629397,0.0202922,0.0611293,0.030702,-0.460197,0.290464
1413393241655760384,-0.807801,3.10837,1.52762,0.0621911,0.817614,-0.0416524,0.570881,0.333406,-0.142971,-0.140872,-0.000644212,0.0202934,0.0611439,0.0314135,-0.463037,0.292879
1413393241705760512,-0.790969,3.10131,1.52032,0.066551,0.816216,-0.038254,0.572624,0.334916,-0.140995,-0.145992,-0.000681883,0.0202845,0.0611792,0.0316909,-0.462542,0.292094
1413393241755760384,-0.774017,3.0946,1.51279,0.0685364,0.815993,-0.0369003,0.572797,0.335698,-0.130677,-0.13892,-0.000667474,0.0202817,0.0612041,0.0307098,-0.458587,0.293687
1413393241805760512,-0.756996,3.08876,1.50537,0.0705314,0.816804,-0.0347097,0.571535,0.331093,-0.109259,-0.143309,-0.000673459,0.0202858,0.061216,0.0307474,-0.46029,0.293741
1413393241855760384,-0.740105,3.08365,1.49832,0.0713853,0.817476,-0.0331847,0.570558,0.33195,-0.100958,-0.135224,-0.000688119,0.0202905,0.0612401,0.0332325,-0.456745,0.297472
1413393241905760512,-0.723443,3.07945,1.49257,0.0717948,0.816525,-0.0322816,0.571919,0.328763,-0.0766681,-0.0937663,-0.000681782,0.0202922,0.0612641,0.0316694,-0.455322,0.294846
1413393241955760384,-0.706981,3.07654,1.48738,0.072007,0.814521,-0.0299987,0.574866,0.321113,-0.0463636,-0.0934582,-0.000691589,0.0203014,0.0612816,0.0321332,-0.452663,0.298617
1413393242005760512,-0.690693,3.07472,1.48188,0.0712993,0.813059,-0.0288468,0.577078,0.317166,-0.0377388,-0.0925915,-0.000693014,0.0203127,0.0613132,0.0329404,-0.44774,0.303057
1413393242055760384,-0.674824,3.07393,1.47731,0.0709512,0.8105,-0.0270086,0.580798,0.30768,-0.00199174,-0.0708613,-0.000698673,0.020325,0.0613408,0.0341449,-0.447047,0.306739
1413393242105760512,-0.6597,3.07436,1.47334,0.0702503,0.808183,-0.0251337,0.584186,0.291786,0.0164667,-0.0620505,-0.000712758,0.020331,0.0613576,0.0340938,-0.442702,0.31024
1413393242155760384,-0.645616,3.07568,1.47019,0.0675547,0.804818,-0.025388,0.589118,0.271232,0.0279429,-0.0529023,-0.000710983,0.020331,0.0613935,0.034585,-0.436934,0.312991
1413393242205760512,-0.632703,3.07814,1.46786,0.0639314,0.801118,-0.0258432,0.594521,0.242291,0.0619783,-0.0410318,-0.000724717,0.0203455,0.0614105,0.0355045,-0.433547,0.314041
1413393242255760384,-0.621268,3.08119,1.46591,0.0618193,0.798724,-0.0257182,0.597961,0.211061,0.0629835,-0.0340296,-0.000722454,0.0203441,0.0614468,0.035196,-0.429877,0.314896
1413393242305760512,-0.611435,3.08477,1.46418,0.0594473,0.797694,-0.0267667,0.599528,0.174417,0.0707519,-0.0293096,-0.000727155,0.020331,0.0614605,0.0371193,-0.428447,0.315362
1413393242355760384,-0.603422,3.08913,1.46227,0.0552059,0.798901,-0.0288162,0.598231,0.14621,0.0907338,-0.0424518,-0.000726099,0.0203497,0.0614989,0.0359868,-0.422021,0.319883
1413393242405760512,-0.596987,3.09389,1.46057,0.0492694,0.802132,-0.0323293,0.594232,0.111178,0.0933703,-0.0360205,-0.000735679,0.0203467,0.0615124,0.034907,-0.417357,0.320842
1413393242455760384,-0.591969,3.09911,1.45899,0.0425215,0.807105,-0.0367636,0.587727,0.0875729,0.0952808,-0.0316209,-0.000739123,0.0203328,0.0615595,0.0330128,-0.411744,0.322939
1413393242505760512,-0.587967,3.10421,1.45748,0.0351371,0.813019,-0.0417845,0.579673,0.0656555,0.0875699,-0.0377397,-0.000751249,0.0203348,0.0615914,0.0324342,-0.407019,0.323774
1413393242555760384,-0.584681,3.1085,1.45654,0.0295772,0.818205,-0.0453746,0.57237,0.0610048,0.0638116,-0.00305588,-0.000760397,0.0203385,0.0616345,0.032461,-0.404426,0.325651
1413393242605760512,-0.581786,3.11124,1.45678,0.0256761,0.822263,-0.0482629,0.566477,0.0586372,0.0330159,0.00963068,-0.000761695,0.0203607,0.0616595,0.0335854,-0.402894,0.326903
1413393242655760384,-0.578582,3.11237,1.45782,0.0237257,0.82488,-0.0493704,0.562648,0.0718108,0.0107741,0.0322276,-0.000771377,0.0203307,0.0616857,0.0350423,-0.40056,0.330756
1413393242705760512,-0.574752,3.11184,1.45973,0.0216334,0.82571,-0.051061,0.561363,0.0853279,-0.0321145,0.0340511,-0.000772579,0.0203565,0.0617132,0.0358072,-0.396698,0.333241
1413393242755760384,-0.570157,3.10986,1.46209,0.0177494,0.825457,-0.0525609,0.561733,0.0960402,-0.0547963,0.0612838,-0.000789928,0.0203544,0.0617379,0.0377167,-0.394353,0.334603
1413393242805760512,-0.564861,3.10674,1.46536,0.0162,0.824798,-0.0508316,0.562905,0.107233,-0.09365,0.0640132,-0.000792344,0.0203644,0.0617786,0.0373758,-0.389461,0.337437
1413393242855760384,-0.559084,3.10235,1.46936,0.0163585,0.824282,-0.0460139,0.56407,0.114332,-0.120004,0.0843814,-0.000817334,0.0203528,0.0618204,0.0381266,-0.387124,0.33963
1413393242905760512,-0.552835,3.09637,1.47389,0.0214113,0.824011,-0.0354646,0.565058,0.123513,-0.133278,0.076358,-0.000836717,0.0203515,0.0618476,0.0398484,-0.385739,0.340248
1413393242955760384,-0.546489,3.08923,1.47827,0.0249197,0.825223,-0.0254701,0.563683,0.124946,-0.161241,0.0992573,-0.000837421,0.0203542,0.0618708,0.0405131,-0.382671,0.343584
1413393243005760512,-0.53989,3.08159,1.48328,0.0266462,0.826989,-0.0149499,0.561387,0.137261,-0.153884,0.104291,-0.000861103,0.0203546,0.0618916,0.0442322,-0.377045,0.347703
1413393243055760384,-0.532513,3.07397,1.48868,0.0261834,0.828526,-0.00339695,0.559327,0.147594,-0.155464,0.0953469,-0.000856766,0.0203462,0.0619249,0.0453798,-0.372597,0.34825
1413393243105760512,-0.524624,3.0664,1.49402,0.0237214,0.830194,0.00738112,0.556921,0.16301,-0.157393,0.110284,-0.000862775,0.0203488,0.061957,0.0466092,-0.369647,0.34894
1413393243155760384,-0.516035,3.05958,1.50024,0.0183718,0.830432,0.0184528,0.556512,0.18252,-0.126388,0.128383,-0.000873104,0.0203643,0.0619769,0.0463881,-0.368707,0.351024
1413393243205760512,-0.506424,3.05352,1.50715,0.0118958,0.828255,0.0295998,0.559443,0.200835,-0.117346,0.152203,-0.000874317,0.0203639,0.0620127,0.0492067,-0.366213,0.354948
1413393243255760384,-0.496207,3.04749,1.51503,0.00599152,0.823883,0.0387402,0.565403,0.209564,-0.129969,0.150703,-0.000876289,0.0203603,0.0620374,0.0516883,-0.361281,0.358641
1413393243305760512,-0.485721,3.04178,1.52165,0.000912056,0.819158,0.047626,0.571587,0.209798,-0.103189,0.0987755,-0.000880378,0.020365,0.0620489,0.0494278,-0.359546,0.359645
1413393243355760384,-0.475284,3.03612,1.52511,-0.00492069,0.815563,0.0540741,0.576116,0.206274,-0.117648,0.0487708,-0.000894071,0.020373,0.0620728,0.0450982,-0.358669,0.362137
1413393243405760512,-0.46548,3.03038,1.5265,-0.00903739,0.812048,0.0593328,0.580496,0.186403,-0.116047,0.00212289,-0.000884152,0.0203784,0.0621082,0.0422222,-0.352577,0.367253
1413393243455760384,-0.45674,3.02489,1.52558,-0.0131466,0.809886,0.0641858,0.582917,0.167111,-0.102139,-0.03558,-0.000879782,0.0203833,0.0621231,0.0410009,-0.347823,0.371925
1413393243505760512,-0.448879,3.01927,1.52223,-0.0167728,0.808064,0.0678683,0.584932,0.146387,-0.107923,-0.0996019,-0.000878065,0.0203881,0.0621625,0.0454187,-0.342419,0.378638
1413393243555760384,-0.441897,3.01374,1.51563,-0.0200671,0.807185,0.0708322,0.58569,0.12413,-0.109227,-0.141926,-0.000871079,0.0204021,0.0621866,0.0462824,-0.338243,0.384225
1413393243605760512,-0.435968,3.00844,1.50786,-0.0221926,0.807001,0.0735037,0.585537,0.10815,-0.106999,-0.149424,-0.000879725,0.0203986,0.0622061,0.0483093,-0.336548,0.388831
1413393243655760384,-0.431038,3.00335,1.49995,-0.0235882,0.807337,0.075868,0.584718,0.0849096,-0.101698,-0.157756,-0.000884564,0.0204117,0.0622338,0.0508314,-0.332819,0.393583
1413393243705760512,-0.427287,2.99863,1.49241,-0.0239527,0.80854,0.0783558,0.582709,0.0644305,-0.087447,-0.124284,-0.000887579,0.0204289,0.0622436,0.0509802,-0.331574,0.396502
1413393243755760384,-0.424555,2.99453,1.48617,-0.02458,0.810082,0.0798257,0.580338,0.0369811,-0.0849551,-0.108497,-0.00089723,0.0204403,0.0622833,0.052297,-0.330596,0.401588
1413393243805760512,-0.423001,2.99098,1.48156,-0.0240366,0.811552,0.0815059,0.578068,0.0137805,-0.0764089,-0.0752801,-0.000900643,0.0204374,0.0623115,0.0543394,-0.32817,0.403416
1413393243855760384,-0.422519,2.98782,1.47808,-0.0256068,0.812215,0.0817079,0.577041,-0.000981315,-0.0635428,-0.064125,-0.000905892,0.0204369,0.0623437,0.0562954,-0.324968,0.407184
1413393243905760512,-0.42285,2.98494,1.47564,-0.0251682,0.812543,0.0827579,0.576447,-0.0143588,-0.0612428,-0.0298567,-0.000910793,0.0204323,0.0623678,0.0573084,-0.323335,0.41101
1413393243955760384,-0.423686,2.98265,1.47404,-0.0253151,0.812554,0.0834348,0.576328,-0.0289892,-0.0521087,-0.0206745,-0.000909926,0.0204367,0.0623884,0.0582435,-0.31796,0.41424
1413393244005760512,-0.425346,2.9806,1.47305,-0.0252745,0.812866,0.0839726,0.575811,-0.0384342,-0.0418579,-0.0165792,-0.000917894,0.0204469,0.0624204,0.0594944,-0.317434,0.416577
1413393244055760384,-0.427395,2.97914,1.47299,-0.0239484,0.812557,0.0848601,0.576175,-0.049071,-0.0310726,0.0026162,-0.000922679,0.0204468,0.0624527,0.0609779,-0.317719,0.419853
1413393244105760512,-0.430149,2.97825,1.47342,-0.023032,0.812773,0.0856565,0.575789,-0.0645501,-0.0168309,0.0239645,-0.000924582,0.020448,0.0624817,0.0612171,-0.319622,0.423341
1413393244155760384,-0.433684,2.97807,1.47435,-0.0225796,0.812911,0.0871638,0.575385,-0.0845505,-0.00371891,0.00520182,-0.00093597,0.0204797,0.0625032,0.0604354,-0.321402,0.422183
1413393244205760512,-0.438174,2.97867,1.47504,-0.0247403,0.812703,0.0894133,0.575245,-0.0959921,0.0226245,0.00841732,-0.000943948,0.0204767,0.0625294,0.0616931,-0.319767,0.424979
1413393244255760384,-0.44316,2.98027,1.47568,-0.0271443,0.812878,0.093986,0.574159,-0.110296,0.0342195,0.0129405,-0.000940517,0.0204668,0.062566,0.0618874,-0.314741,0.429622
1413393244305760512,-0.448706,2.98291,1.47615,-0.0304251,0.813053,0.0997909,0.572766,-0.121314,0.0513017,0.023669,-0.00095442,0.0204705,0.0625871,0.0623951,-0.311327,0.431203
1413393244355760384,-0.454965,2.98624,1.47685,-0.0352892,0.813038,0.106499,0.571298,-0.129117,0.0778823,0.00800945,-0.00096002,0.0204646,0.0626143,0.0630875,-0.308507,0.431323
1413393244405760512,-0.461578,2.9899,1.47666,-0.0403633,0.811786,0.11186,0.571719,-0.132285,0.0708158,-0.0289025,-0.000954045,0.0204714,0.0626397,0.0614617,-0.307499,0.430375
1413393244455760384,-0.468831,2.99377,1.47484,-0.0460808,0.810125,0.115735,0.572869,-0.150761,0.0831377,-0.0699196,-0.000953081,0.0204695,0.062673,0.0601942,-0.306802,0.430869
1413393244505760512,-0.476773,2.99791,1.46984,-0.0518256,0.809227,0.119042,0.57297,-0.165741,0.0887132,-0.130143,-0.000961591,0.0204861,0.0626895,0.0587329,-0.307676,0.43454
1413393244555760384,-0.485633,3.00182,1.46159,-0.0571004,0.808115,0.121207,0.573584,-0.180168,0.0689122,-0.192322,-0.000970733,0.0204951,0.0627064,0.0576296,-0.307251,0.43786
1413393244605760512,-0.494821,3.00535,1.45117,-0.0615427,0.808249,0.123379,0.572472,-0.185198,0.0757967,-0.22231,-0.000963903,0.0204978,0.0627453,0.0577284,-0.30808,0.438098
1413393244655760384,-0.504262,3.00911,1.44087,-0.0657252,0.80846,0.125107,0.571333,-0.179888,0.0772101,-0.18808,-0.000972691,0.0205056,0.0627642,0.0583117,-0.306425,0.442053
1413393244705760512,-0.513878,3.01287,1.43447,-0.0688022,0.807737,0.126928,0.571592,-0.21437,0.0673803,-0.109679,-0.000975951,0.0205043,0.0628061,0.0594962,-0.304222,0.44393
1413393244755760384,-0.52528,3.01577,1.42895,-0.0735626,0.808608,0.126223,0.569921,-0.230238,0.0599505,-0.0879983,-0.000962822,0.020499,0.0628439,0.0643243,-0.304226,0.446452
1413393244805760512,-0.537003,3.01873,1.42667,-0.0787028,0.808735,0.124778,0.569372,-0.233158,0.0608679,-0.0135562,-0.000972793,0.0205109,0.0628783,0.0682143,-0.304802,0.450926
1413393244855760384,-0.549211,3.02148,1.42818,-0.0822009,0.809602,0.123816,0.567854,-0.251877,0.0575903,0.0765448,-0.000975371,0.0205151,0.0629151,0.0718726,-0.305302,0.454642
1413393244905760512,-0.560928,3.02417,1.43437,-0.084623,0.809696,0.122589,0.56763,-0.225161,0.0441964,0.161726,-0.000964398,0.0205231,0.0629394,0.076169,-0.306587,0.455253
1413393244955760384,-0.572342,3.02605,1.44447,-0.0847952,0.809563,0.122746,0.56776,-0.24362,0.0263772,0.227167,-0.000962055,0.0205321,0.0629636,0.0787112,-0.306242,0.459963
1413393245005760512,-0.584994,3.02658,1.45472,-0.0820606,0.810865,0.124559,0.565905,-0.251715,-9.4185e-05,0.211655,-0.000963382,0.0205458,0.0629784,0.0835828,-0.308121,0.460975
1413393245055760384,-0.597895,3.02604,1.46443,-0.0796736,0.813068,0.125257,0.562925,-0.261041,-0.0176894,0.177505,-0.000949583,0.0205753,0.0629992,0.0881807,-0.308329,0.463335
1413393245105760512,-0.610934,3.02468,1.47213,-0.076733,0.815584,0.126809,0.559333,-0.260169,-0.0273701,0.122192,-0.000958434,0.0205822,0.0630302,0.0923713,-0.313262,0.467351
1413393245155760384,-0.623552,3.02281,1.47718,-0.0748939,0.818531,0.126969,0.555227,-0.24993,-0.0418562,0.0718875,-0.000961197,0.0205872,0.0630453,0.0944211,-0.311636,0.468124
1413393245205760512,-0.635981,3.02042,1.47968,-0.0727017,0.821452,0.127502,0.551067,-0.244766,-0.0482583,0.0257815,-0.000954809,0.020602,0.0630668,0.096423,-0.309835,0.467891
1413393245255760384,-0.64822,3.01799,1.47988,-0.0702724,0.822588,0.128714,0.549402,-0.23935,-0.056337,-0.0304932,-0.000958936,0.0206096,0.06309,0.0969734,-0.312986,0.463734
1413393245305760512,-0.65977,3.01513,1.47677,-0.0680679,0.823244,0.129685,0.548469,-0.225095,-0.0514296,-0.0877687,-0.00095348,0.0206088,0.0631096,0.0985325,-0.314111,0.465477
1413393245355760384,-0.670731,3.01239,1.47129,-0.0656031,0.822634,0.131215,0.549319,-0.215094,-0.0417605,-0.128757,-0.000957773,0.0206158,0.0631335,0.101898,-0.314934,0.466442
1413393245405760512,-0.681143,3.01024,1.46392,-0.0637552,0.821677,0.132103,0.550755,-0.192394,-0.0453109,-0.161461,-0.000968659,0.0206022,0.0631552,0.104517,-0.313953,0.467244
1413393245455760384,-0.690799,3.00799,1.45481,-0.0614529,0.820178,0.13342,0.552929,-0.191791,-0.043119,-0.202043,-0.000968667,0.0206126,0.0631845,0.10525,-0.311861,0.47104
1413393245505760512,-0.700454,3.00584,1.44383,-0.0595326,0.818695,0.134654,0.555034,-0.184255,-0.0360117,-0.2275,-0.000969365,0.020619,0.0632039,0.108449,-0.312112,0.467579
1413393245555760384,-0.709507,3.00388,1.43279,-0.05753,0.816699,0.135578,0.557954,-0.173702,-0.0364792,-0.223356,-0.000968006,0.0206194,0.0632346,0.110301,-0.312316,0.465024
1413393245605760512,-0.71838,3.00256,1.42216,-0.055607,0.814829,0.136185,0.560728,-0.176026,-0.0213509,-0.222892,-0.000969341,0.0206367,0.0632646,0.110448,-0.313215,0.464915
1413393245655760384,-0.727908,3.00207,1.41285,-0.0537277,0.813019,0.136779,0.563387,-0.185253,-0.0063253,-0.214569,-0.000964519,0.0206185,0.0633086,0.109303,-0.314601,0.458912
1413393245705760512,-0.737604,3.00205,1.40403,-0.0509738,0.811817,0.137406,0.565221,-0.185622,0.00435189,-0.193309,-0.000963714,0.020634,0.0633309,0.109242,-0.315728,0.456294
1413393245755760384,-0.747163,3.00252,1.39471,-0.0488949,0.812259,0.136768,0.564923,-0.189927,0.0196258,-0.18349,-0.000964698,0.0206358,0.0633463,0.111341,-0.317604,0.454009
1413393245805760512,-0.756608,3.00397,1.38589,-0.047654,0.813012,0.135239,0.564316,-0.191869,0.0397824,-0.168163,-0.000965701,0.020644,0.063371,0.113203,-0.318007,0.455029
1413393245855760384,-0.766137,3.00626,1.37806,-0.0484742,0.813592,0.132227,0.564123,-0.194033,0.0518908,-0.144346,-0.000950696,0.0206517,0.0633874,0.114552,-0.314542,0.454276
1413393245905760512,-0.77598,3.00903,1.37082,-0.0500569,0.81527,0.128522,0.562416,-0.197072,0.0563767,-0.145223,-0.000942894,0.020668,0.0634188,0.114007,-0.316005,0.455522
1413393245955760384,-0.786005,3.01216,1.36426,-0.0536831,0.817077,0.123745,0.560527,-0.198265,0.0679591,-0.1366,-0.000945933,0.0206716,0.063449,0.119128,-0.315285,0.460725
1413393246005760512,-0.795894,3.01483,1.35698,-0.058627,0.820062,0.117755,0.556952,-0.193175,0.0708968,-0.132686,-0.000889852,0.0205205,0.0635415,0.150764,-0.308263,0.462157
1413393246055760384,-0.804952,3.01815,1.35049,-0.063947,0.822899,0.111867,0.553384,-0.177404,0.0590056,-0.127616,-0.000911526,0.0205895,0.0634998,0.130635,-0.321948,0.471958
1413393246105760512,-0.813498,3.02088,1.3441,-0.0680854,0.825935,0.106492,0.549414,-0.16201,0.0467748,-0.129098,-0.000918163,0.0206144,0.0635236,0.127059,-0.323301,0.474587
