#timestamp, p_RS_R_x [m], p_RS_R_y [m], p_RS_R_z [m], q_RS_w [], q_RS_x [], q_RS_y [], q_RS_z [], v_RS_R_x [m s^-1], v_RS_R_y [m s^-1], v_RS_R_z [m s^-1], b_w_RS_S_x [rad s^-1], b_w_RS_S_y [rad s^-1], b_w_RS_S_z [rad s^-1], b_a_RS_S_x [m s^-2], b_a_RS_S_y [m s^-2], b_a_RS_S_z [m s^-2]
1413393212255760384,-1.07611,0.492467,1.32992,0.602649,-0.00181753,-0.797997,0.00347675,-0.00217397,0.00564064,0.00192482,-0.000393264,0.00472555,0.0163859,-0.00157172,2.9173e-05,0.000436497
1413393212305760512,-1.07471,0.491533,1.33373,0.602695,-0.00163708,-0.797962,0.00368873,-0.00146037,0.00153125,0.00137531,-0.000391415,0.0047993,0.0166449,-0.00226162,4.17373e-05,0.000628528
1413393212355760384,-0.843239,0.260358,1.33066,0.602696,-0.000371998,-0.797957,0.00464899,-0.0038871,-0.00136362,0.00136022,-0.000409371,0.00487049,0.0169197,-0.00293956,5.34359e-05,0.000820518
1413393212405760512,-0.84126,0.296829,1.3334,0.60242,0.0169312,-0.7978,0.0178683,-0.00272442,6.30128e-05,0.000823004,-0.000420265,0.00495573,0.0171915,-0.0035866,8.7944e-05,0.00101744
1413393212455760384,-0.856795,0.298066,1.37397,0.602375,0.0175863,-0.797811,0.01826,0.000106909,-0.00292284,0.00190419,-0.000417813,0.00502666,0.0174515,-0.00414284,0.000109437,0.00122424
1413393212505760512,-0.837752,0.280868,1.19583,0.602569,0.00945622,-0.797919,0.0120944,-0.000861225,-0.0026675,0.00260067,-0.000430959,0.00510732,0.0176996,-0.0049834,0.000125312,0.00145319
1413393212555760384,-0.845347,0.289926,1.21358,0.602369,0.0188,-0.797767,0.0191606,-0.000684534,-0.00485471,-0.000386183,-0.000444879,0.00517982,0.0179626,-0.00537394,0.000114239,0.0015799
1413393212605760512,-0.841699,0.289061,1.19535,0.602395,0.0175882,-0.797792,0.018408,-0.00140713,0.00215189,0.000223343,-0.000460877,0.00525365,0.0182266,-0.00599113,0.00015277,0.00177841
1413393212655760384,-0.840795,0.28473,1.19812,0.602495,0.0125492,-0.797895,0.0143897,-0.00191771,-0.000735162,-0.000442702,-0.000475785,0.0053275,0.0184994,-0.00679396,0.000124849,0.00199159
1413393212705760512,-0.842966,0.287618,1.19706,0.602475,0.0147264,-0.797832,0.0164789,0.000888842,-0.00303778,-0.00100499,-0.000475799,0.00539238,0.0187191,-0.00728063,0.000144972,0.0021756
1413393212755760384,-0.846676,0.293105,1.32391,0.602451,0.0154971,-0.797834,0.0165396,0.000289049,0.00122671,-0.000558634,-0.00047754,0.00546739,0.0189704,-0.00790961,0.00012061,0.00238557
1413393212805760512,-0.830805,0.271388,1.21721,0.602703,0.00179592,-0.797939,0.00634175,-0.00025215,-0.00206676,-0.000290809,-0.000501219,0.00553882,0.0191838,-0.00879682,-4.61058e-05,0.00250484
1413393212855760384,-0.823705,0.264517,1.22088,0.602754,-0.00197513,-0.797918,0.00332745,-0.000158099,0.00143906,-0.000187124,-0.000511426,0.00560397,0.0194218,-0.00935314,-0.000168786,0.00238798
1413393212905760512,-0.831109,0.272666,1.22384,0.602699,0.00399946,-0.797921,0.00783889,-0.0012383,0.00139904,-0.000317639,-0.000521839,0.00567864,0.0196814,-0.00982189,-9.52131e-05,0.00251449
1413393212955760384,-0.845188,0.289188,1.29027,0.60249,0.0142665,-0.797843,0.0157918,-0.00132847,-0.00204137,-0.00127656,-0.000530432,0.00573815,0.019921,-0.0101708,0.000314757,0.00313856
1413393213005760512,-0.852132,0.296195,1.29605,0.602356,0.018582,-0.797785,0.019007,0.00031947,0.0013933,0.00011063,-0.000517236,0.00580268,0.0201695,-0.0104501,0.000672121,0.00385196
1413393213055760384,-0.833925,0.278489,1.63755,0.602699,0.00521329,-0.797902,0.00893103,7.69945e-05,0.000278459,-0.000113518,-0.000538484,0.00588085,0.0204074,-0.0114082,-2.96991e-05,0.00291875
1413393213105760512,-0.851576,0.298713,1.65685,0.602378,0.0177878,-0.797796,0.0186256,-0.00126363,-0.000561628,-0.00323635,-0.000516069,0.00594409,0.0206536,-0.0114019,0.000852574,0.0041411
1413393213155760384,-0.850578,0.297747,1.67209,0.602339,0.0175138,-0.797838,0.0183189,-0.00081978,0.000868049,-6.29423e-05,-0.000517433,0.00599341,0.0208716,-0.0117602,0.000900156,0.00422044
1413393213205760512,-0.849541,0.296955,1.66813,0.602387,0.0171534,-0.797815,0.0180837,0.000272535,0.00167498,0.000483479,-0.000524056,0.00606898,0.021094,-0.0121217,0.000911381,0.00433529
1413393213255760384,-0.8417,0.288883,1.63717,0.602493,0.0118271,-0.797916,0.0138904,0.00144016,0.000322014,0.00262112,-0.000526414,0.00611181,0.0212935,-0.012551,0.000718178,0.00405176
1413393213305760512,-0.839005,0.28641,1.65166,0.602552,0.0101811,-0.797916,0.0125992,0.000613661,-0.00186007,0.00248532,-0.000538643,0.00617325,0.0215365,-0.0132513,0.000649647,0.00410971
1413393213355760384,-0.837315,0.283822,1.63277,0.60258,0.00844506,-0.797928,0.0117542,0.00150802,0.0016627,-9.85901e-05,-0.000530379,0.00625711,0.0218154,-0.0140978,0.000587914,0.00412091
1413393213405760512,-0.852585,0.303936,1.56173,0.602143,0.022153,-0.797782,0.02183,0.00150703,0.00181401,0.00163496,-0.000514529,0.00630689,0.0220502,-0.0140788,0.0021656,0.00571234
1413393213455760384,-0.857411,0.310306,1.49469,0.601956,0.0256171,-0.797738,0.0246426,0.000292981,-0.00106657,-0.000327068,-0.000516395,0.00639211,0.0222774,-0.0142138,0.00257378,0.00674917
1413393213505760512,-0.858098,0.31131,1.51154,0.601887,0.0263035,-0.797758,0.0249603,-0.00105278,-0.000558296,0.000398395,-0.000523281,0.0064654,0.022481,-0.0146549,0.00267187,0.00699774
1413393213555760384,-0.85177,0.304249,1.31316,0.602033,0.0229968,-0.797825,0.0224201,-0.000296673,0.00115164,0.00139578,-0.000521501,0.00654333,0.0227116,-0.0153523,0.00267346,0.00643731
1413393213605760512,-0.851393,0.303612,1.32956,0.602063,0.0224721,-0.797826,0.0221257,0.000426006,0.00240364,0.00096987,-0.00051591,0.00662299,0.0229832,-0.0159335,0.00269558,0.00661812
1413393213655760384,-0.851869,0.304139,1.31555,0.602064,0.0228877,-0.797809,0.0222763,0.000258938,0.000438832,-0.000251424,-0.000535846,0.0066851,0.0231403,-0.0162515,0.00276074,0.00673328
1413393213705760512,-0.851167,0.303333,1.31971,0.602084,0.0226515,-0.797801,0.0222846,0.000481524,-0.00158661,-0.000226519,-0.000548641,0.00675853,0.0233874,-0.0169775,0.00268782,0.00710365
1413393213755760384,-0.850733,0.302724,1.31941,0.602061,0.0227397,-0.797813,0.0223631,0.00107636,2.61984e-05,-0.00141201,-0.000557438,0.00680608,0.0235611,-0.0172462,0.00280885,0.00726993
1413393213805760512,-0.850514,0.302438,1.31988,0.602092,0.0227168,-0.797791,0.0223416,0.000378767,0.000454656,-0.00383088,-0.000580404,0.00685114,0.0237464,-0.0175283,0.00288128,0.00725047
1413393213855760384,-0.849657,0.301375,1.32199,0.602115,0.0225348,-0.797782,0.0222562,-0.000411803,-0.000572075,-0.00171721,-0.000604627,0.00692741,0.0239679,-0.0181557,0.0028904,0.00731795
1413393213905760512,-0.849243,0.300673,1.32256,0.602066,0.0224247,-0.797825,0.0220933,0.000373247,-0.00246625,-0.00193948,-0.000572779,0.00697605,0.0241615,-0.0183153,0.00329462,0.00713889
1413393213955760384,-0.848909,0.300324,1.31486,0.602004,0.0225773,-0.797865,0.0222184,0.0010828,-0.0025953,0.000677566,-0.000589555,0.00702172,0.0243919,-0.0189022,0.00330518,0.00743432
1413393214005760512,-0.848859,0.300048,1.32312,0.601902,0.0227642,-0.79793,0.022459,7.95967e-06,0.0112063,0.00384286,-0.000583575,0.00710207,0.024622,-0.0196412,0.003417,0.00777396
1413393214055760384,-0.848688,0.299828,1.32608,0.602041,0.0228421,-0.797825,0.0223653,0.0018585,0.00792471,0.00120432,-0.000566832,0.00712315,0.0248104,-0.0203404,0.00383402,0.00794314
1413393214105760512,-0.849389,0.300539,1.31943,0.601759,0.0232756,-0.798015,0.0227124,-0.000114377,0.00292247,0.00197063,-0.000577833,0.00720731,0.0249957,-0.0205295,0.00388177,0.00806244
1413393214155760384,-0.84945,0.300396,1.3332,0.601975,0.0232395,-0.797854,0.0227091,0.00241683,5.04595e-06,0.00039713,-0.000565557,0.0072693,0.0251985,-0.021041,0.00404314,0.00822638
1413393214205760512,-0.849254,0.300103,1.33787,0.601883,0.0233098,-0.797915,0.0229324,-8.81021e-06,0.00150461,-0.000217604,-0.000582971,0.00733422,0.0254329,-0.0213933,0.0040082,0.0085493
1413393214255760384,-0.84957,0.300382,1.33927,0.602004,0.0235072,-0.797823,0.0227339,-0.000379226,-5.1816e-06,-0.000336445,-0.000579702,0.00738169,0.0256053,-0.0216238,0.00405571,0.00868883
1413393214305760512,-0.84967,0.300383,1.35145,0.601995,0.0234546,-0.797825,0.0229566,7.41056e-05,-0.0036972,-0.0018742,-0.000588834,0.00745779,0.025852,-0.0223158,0.00402401,0.00941702
1413393214355760384,-0.849188,0.299937,1.34957,0.602035,0.0234694,-0.797795,0.0229324,-0.000671451,0.0011237,-0.000100826,-0.000626646,0.00750907,0.0260117,-0.0228504,0.00404475,0.00964868
1413393214405760512,-0.849006,0.299711,1.35295,0.602016,0.0233987,-0.797816,0.0227967,5.94372e-05,-0.000548635,-0.000716564,-0.000633831,0.00760026,0.0261786,-0.0232425,0.00386098,0.00979881
1413393214455760384,-0.849192,0.299831,1.35434,0.602063,0.0235813,-0.797766,0.0230961,-0.000428068,0.00096847,0.00048933,-0.000662044,0.00759792,0.0263651,-0.0233862,0.00405785,0.0102708
1413393214505760512,-0.849241,0.2999,1.35517,0.602034,0.0236962,-0.797786,0.0230396,-0.000455603,0.000497912,0.00227702,-0.000651661,0.00766426,0.0265878,-0.023831,0.0042492,0.0108957
1413393214555760384,-0.850866,0.301784,1.35997,0.601996,0.0245619,-0.797766,0.0238223,0.000439681,-0.000903014,0.000712842,-0.000677102,0.00775309,0.0267223,-0.0237637,0.00444564,0.0116827
1413393214605760512,-0.851995,0.302198,1.45072,0.601957,0.0248808,-0.797783,0.0238789,-0.0013335,0.00086121,4.92845e-05,-0.000679803,0.00779126,0.0269455,-0.0240192,0.0045906,0.0124304
1413393214655760384,-0.855163,0.306027,1.43153,0.601883,0.026701,-0.797736,0.0253313,0.000970605,-0.00156218,0.00103787,-0.000700914,0.00785,0.0271022,-0.0241484,0.00411725,0.0145196
1413393214705760512,-0.852691,0.301247,1.57998,0.601991,0.0245382,-0.797773,0.0237173,-0.000996262,-7.71381e-05,-0.00168573,-0.000713575,0.00793892,0.0273168,-0.0247864,0.00447585,0.0143593
1413393214755760384,-0.85154,0.299726,1.53252,0.601986,0.0237483,-0.797821,0.023045,0.000104131,-0.00103259,-0.000796218,-0.000728594,0.00797753,0.0274704,-0.024972,0.00405705,0.015272
1413393214805760512,-0.848816,0.296565,1.55267,0.602026,0.0221781,-0.797867,0.0219491,0.000324061,0.000179526,-0.000844648,-0.000732272,0.00800156,0.027634,-0.0251149,0.00419994,0.0158742
1413393214855760384,-0.844927,0.292187,1.31967,0.602057,0.0202287,-0.797936,0.0204195,-0.000183263,0.00105571,-0.00111197,-0.000799605,0.00808648,0.0278164,-0.0255278,0.00369396,0.0167758
1413393214905760512,-0.842588,0.290666,1.36908,0.602037,0.0184615,-0.798027,0.0190855,0.000810968,-0.000451973,-0.00080966,-0.000790177,0.00811559,0.0280162,-0.0250759,0.00420473,0.0179902
1413393214955760384,-0.837608,0.28706,1.34583,0.601993,0.0163958,-0.798139,0.0176216,0.000396283,0.000112727,0.000416333,-0.000775399,0.0081613,0.0282034,-0.0247879,0.00516652,0.0193601
1413393215005760512,-0.834887,0.284553,1.37785,0.601885,0.0146142,-0.798283,0.0162801,0.000446932,0.000692606,0.00116183,-0.000792651,0.00822411,0.0283452,-0.0243637,0.00608825,0.0218345
1413393215055760384,-0.83369,0.282535,1.33862,0.601657,0.0128681,-0.798514,0.0148301,-0.00117273,-0.00297076,0.00220943,-0.000792483,0.00830135,0.0285392,-0.02428,0.00616963,0.0241337
1413393215105760512,-0.830265,0.280397,1.16035,0.601421,0.0115595,-0.798724,0.0141255,-0.00192471,-0.00814706,-0.0037735,-0.000795679,0.00833653,0.0287328,-0.0236027,0.00729703,0.027822
1413393215155760384,-0.827916,0.280696,1.16699,0.601704,0.00952716,-0.798564,0.0125269,-0.0015074,-0.00267141,-0.00208242,-0.000815597,0.00835126,0.0289122,-0.0245553,0.00753425,0.0265209
1413393215205760512,-0.823891,0.277107,0.986421,0.601532,0.00773884,-0.798736,0.0109868,-0.00263021,-0.00348416,-0.0040171,-0.000794181,0.00842588,0.0290784,-0.0251266,0.00776664,0.0281459
1413393215255760384,-0.82426,0.279022,0.952391,0.601528,0.00835311,-0.798723,0.0116851,-0.00252774,-0.00307045,-0.00481079,-0.000798249,0.00840714,0.0291983,-0.0250375,0.00837946,0.0297622
1413393215305760512,-0.822281,0.27834,0.785731,0.601408,0.00783146,-0.798825,0.0112216,-0.00361371,-0.00195923,-0.00406538,-0.000801042,0.00849517,0.029428,-0.0251377,0.00885118,0.0323982
1413393215355760384,-0.820106,0.276194,0.738073,0.601356,0.00698239,-0.798882,0.0105267,-0.00144382,-0.0032976,-0.00362111,-0.000793456,0.00852401,0.0295494,-0.0256404,0.00866271,0.0338363
1413393215405760512,-0.817868,0.27452,0.63694,0.60106,0.00624324,-0.799118,0.0099778,-0.00207042,-0.00113947,-0.00149819,-0.000793022,0.00857484,0.0297614,-0.0255721,0.00871916,0.0372758
1413393215455760384,-0.817133,0.273319,0.690331,0.600862,0.00619371,-0.799269,0.00979367,-0.00431839,-0.000847108,0.00129519,-0.000817573,0.0086923,0.0299283,-0.0264517,0.0086588,0.0384713
1413393215505760512,-0.816597,0.272239,0.727943,0.60058,0.00564259,-0.799489,0.00947713,-0.00321062,-0.00198353,4.80469e-05,-0.000812274,0.00874007,0.0301114,-0.0262787,0.00782443,0.04261
1413393215555760384,-0.815661,0.272977,0.552287,0.600296,0.00580086,-0.799701,0.00943669,-0.00750083,-0.00264428,0.00267862,-0.000844846,0.00879542,0.0302476,-0.0256531,0.0081187,0.046612
1413393215605760512,-0.813766,0.272884,0.314225,0.600099,0.00560404,-0.799853,0.0092653,-0.00921531,-0.00377786,0.0054363,-0.000829687,0.00886423,0.0304161,-0.0253262,0.00864621,0.0507798
1413393215655760384,-0.813104,0.272228,0.281065,0.59987,0.00502269,-0.80003,0.0091535,-0.00744064,-0.00049467,0.00491685,-0.000835509,0.00892292,0.0305292,-0.0255538,0.00845451,0.0518476
1413393215705760512,-0.810839,0.269311,0.315553,0.599365,0.00441015,-0.800417,0.00873136,-0.00309355,-0.00340574,-0.00284862,-0.000839863,0.00899582,0.0306685,-0.0260624,0.00884159,0.050775
1413393215755760384,-0.80819,0.265648,0.400918,0.598971,0.00386115,-0.800722,0.00802204,8.02432e-07,-0.000428204,-0.00534505,-0.000803516,0.00904952,0.0307881,-0.0268216,0.0092595,0.0482075
1413393215805760512,-0.807275,0.265117,0.41252,0.598576,0.00395621,-0.801018,0.00788117,0.00434484,-0.00242292,0.00931752,-0.000789711,0.00910732,0.0309527,-0.0273211,0.00908625,0.0478013
1413393215855760384,-0.804509,0.262645,0.368993,0.598433,0.00354926,-0.801131,0.00746915,0.00118254,0.00035524,0.00726277,-0.000823956,0.00914317,0.0311643,-0.0281885,0.00868738,0.0462623
1413393215905760512,-0.802307,0.261055,0.281795,0.598434,0.00319023,-0.801133,0.00729038,0.0004307,-0.000905974,0.00769625,-0.000796831,0.00919274,0.0313378,-0.0292188,0.00875261,0.0441844
1413393215955760384,-0.800924,0.260004,0.221931,0.59844,0.00265833,-0.801128,0.00750886,0.00310625,0.00145386,0.00594673,-0.000746103,0.00925921,0.0315413,-0.0304349,0.00874408,0.0431219
1413393216005760512,-0.799889,0.259068,0.231479,0.598596,0.00273641,-0.801017,0.00694491,0.00760805,0.000898103,0.00733583,-0.000801249,0.00929608,0.0316971,-0.0310708,0.00853144,0.0419505
1413393216055760384,-0.798567,0.257261,0.251361,0.598654,0.00297979,-0.800978,0.00631565,-0.000809058,0.00161816,0.0038824,-0.000726196,0.00931311,0.0318317,-0.0313092,0.00933189,0.0417511
1413393216105760512,-0.797994,0.256751,0.250558,0.598665,0.00282206,-0.800969,0.00652575,-0.0018517,0.00137308,-0.00591518,-0.000731101,0.00935887,0.0319929,-0.0322813,0.0091628,0.0402963
1413393216155760384,-0.79705,0.255428,0.270401,0.599123,0.00284634,-0.800629,0.00613061,-0.00281837,-0.000269915,-0.0015277,-0.000762556,0.00940278,0.0321379,-0.0331624,0.00911573,0.0392039
1413393216205760512,-0.795999,0.254413,0.233417,0.598973,0.00261233,-0.800743,0.0060024,-0.00431997,0.00302248,-0.00327753,-0.000719996,0.00944457,0.0323031,-0.0340245,0.00874822,0.0383696
1413393216255760384,-0.795162,0.25334,0.200868,0.598016,0.00284474,-0.801456,0.00606969,-0.0114893,0.00309859,0.00253338,-0.000727762,0.00949808,0.0324527,-0.035166,0.00864588,0.0363222
1413393216305760512,-0.794825,0.252524,0.193128,0.596922,0.00278354,-0.802271,0.00610959,-0.00756455,-0.00321697,0.00089954,-0.000749882,0.00955187,0.0326413,-0.0359564,0.00834632,0.036851
1413393216355760384,-0.793872,0.251691,0.168213,0.596537,0.00227407,-0.802559,0.00622441,0.000694749,0.00373347,-0.00250506,-0.000735175,0.00963599,0.0327334,-0.036469,0.00798336,0.036086
1413393216405760512,-0.793528,0.251386,0.165027,0.596062,0.00233609,-0.80291,0.00630208,0.000554498,-0.00770929,-0.00730773,-0.000725567,0.00967244,0.0328604,-0.0366016,0.00782082,0.0360878
1413393216455760384,-0.793733,0.251292,0.156645,0.596155,0.00266599,-0.802843,0.0060042,-0.00422826,-0.00170148,0.0104167,-0.000751723,0.00969126,0.0329915,-0.0364393,0.00763175,0.0367028
1413393216505760512,-0.79392,0.251453,0.157614,0.594419,0.00228472,-0.804133,0.00556415,0.00342083,0.00853741,0.0120908,-0.000699859,0.00968361,0.0331205,-0.0363998,0.00744181,0.0372451
1413393216555760384,-0.794107,0.252115,0.156164,0.593726,0.00185354,-0.804651,0.00480191,0.00159817,0.0113204,-0.0194956,-0.000723373,0.00969879,0.0332189,-0.0363662,0.00709485,0.037141
1413393216605760512,-0.794112,0.2529,0.159153,0.593285,0.000559723,-0.804976,0.00520136,0.000399866,0.0197168,-0.0122878,-0.000735806,0.00970796,0.0333906,-0.0368274,0.00691481,0.0365861
1413393216655760384,-0.794668,0.254183,0.134541,0.59394,0.000664499,-0.804498,0.00431734,0.000704555,0.00662838,0.0231198,-0.000690522,0.00973522,0.033528,-0.0372849,0.00723897,0.0357203
1413393216705760512,-0.794964,0.25533,0.151823,0.594676,0.00131161,-0.803962,0.00214249,0.0185796,0.019313,0.0352457,-0.00073339,0.00976716,0.0336234,-0.0379499,0.00729593,0.0354335
1413393216755760384,-0.7948,0.257886,0.114616,0.594929,0.00229701,-0.803775,-0.000688119,0.012859,0.0170516,0.0476253,-0.000747773,0.00978358,0.0337917,-0.038588,0.00734715,0.0349645
1413393216805760512,-0.796132,0.259965,0.250734,0.595666,0.00382323,-0.80322,-0.0022473,0.019781,0.00724181,0.0873167,-0.000762934,0.00984,0.0339234,-0.0395654,0.00759722,0.0339445
1413393216855760384,-0.798951,0.2654,0.293847,0.596548,0.00633753,-0.802547,-0.0029483,0.0282927,0.0100763,0.0930605,-0.000784769,0.0098773,0.0340772,-0.0402805,0.00801316,0.0334699
1413393216905760512,-0.781879,0.248908,0.109217,0.59771,-0.00263323,-0.801624,-0.011645,0.0381044,-0.0033941,0.128172,-0.000703941,0.00990709,0.0342029,-0.0365714,0.0090845,0.0469123
1413393216955760384,-0.799312,0.276303,0.109113,0.598484,0.0110489,-0.801041,-0.00543387,0.0473523,-0.00250265,0.142754,-0.00081441,0.00999795,0.0343301,-0.0409601,0.00933368,0.0345055
1413393217005760512,-0.775157,0.236974,0.671903,0.59674,-0.00264591,-0.802234,-0.0177262,0.0600314,-0.015443,0.15912,-0.000674374,0.0100258,0.0344689,-0.0345523,0.0107287,0.0547657
1413393217055760384,-0.802983,0.285966,-0.137967,0.595754,0.0153448,-0.803004,-0.0052651,0.0688846,-0.0348882,0.224857,-0.000862875,0.0101283,0.0346378,-0.0393611,0.012131,0.0402946
1413393217105760512,-0.80859,0.293281,-0.240716,0.594277,0.0175758,-0.80406,-0.00374502,0.0832126,-0.0397107,0.273377,-0.000884065,0.0101733,0.034768,-0.0357333,0.0130069,0.0516038
1413393217155760384,-0.765427,0.240274,-0.269161,0.591733,-0.00183345,-0.805951,-0.0170805,0.0888267,-0.0678291,0.276989,-0.000715306,0.0101697,0.0348732,-0.0286291,0.0178114,0.071519
1413393217205760512,-0.757484,0.235836,-0.293165,0.591047,-0.00197867,-0.806457,-0.0169473,0.100273,-0.0820618,0.264342,-0.000694258,0.0101964,0.0349923,-0.0283346,0.0191554,0.0710407
1413393217255760384,-0.757268,0.235351,-0.278398,0.591361,-0.00144623,-0.8062,-0.01821,0.103028,-0.0905501,0.246078,-0.00066278,0.0102013,0.0351437,-0.0282999,0.0199109,0.0695535
1413393217305760512,-0.753303,0.230133,-0.243558,0.590914,-0.00115674,-0.806504,-0.0192781,0.11296,-0.105885,0.207907,-0.000686973,0.0102502,0.0352678,-0.0290336,0.0202343,0.0682311
1413393217355760384,-0.756761,0.230203,-0.194601,0.590162,-0.000757585,-0.807059,-0.0191044,0.123344,-0.123838,0.173411,-0.000699834,0.0102703,0.0353806,-0.029971,0.0201364,0.0661853
1413393217405760512,-0.750993,0.227307,-0.235315,0.589245,-0.000366984,-0.807717,-0.0196037,0.140932,-0.129939,0.159969,-0.000704914,0.0102842,0.0355086,-0.0309697,0.0198189,0.0643561
1413393217455760384,-0.741241,0.22126,-0.285985,0.588437,-0.00054083,-0.808311,-0.0193812,0.150934,-0.154951,0.142337,-0.000705373,0.0103447,0.0356507,-0.0324445,0.0196698,0.0619809
1413393217505760512,-0.729103,0.210315,-0.279279,0.588117,0.000521331,-0.808543,-0.0194245,0.152642,-0.176808,0.128497,-0.000723542,0.0103717,0.0357436,-0.0339931,0.0214133,0.0579291
1413393217555760384,-0.722484,0.200521,-0.244982,0.588441,0.00087948,-0.808303,-0.0195612,0.174078,-0.177273,0.104087,-0.000752242,0.0104216,0.0359047,-0.0363677,0.0198217,0.0520739
1413393217605760512,-0.714147,0.193133,-0.267271,0.588952,0.00231144,-0.807933,-0.0193646,0.177432,-0.211383,0.0850758,-0.000756517,0.0104651,0.0359947,-0.0387959,0.0187888,0.0451926
1413393217655760384,-0.705331,0.185639,-0.340041,0.58928,0.00478205,-0.807725,-0.0175214,0.189984,-0.216066,0.0925961,-0.000771993,0.0104963,0.0360943,-0.0411468,0.0179822,0.0369751
1413393217705760512,-0.695959,0.175325,-0.327554,0.589521,0.00537537,-0.807553,-0.017166,0.194619,-0.235157,0.13556,-0.000808281,0.0105336,0.0362401,-0.041975,0.0181124,0.034718
1413393217755760384,-0.686479,0.164038,-0.316638,0.589868,0.00616567,-0.807308,-0.0164788,0.202396,-0.264794,0.180292,-0.000824458,0.0106094,0.0363506,-0.0424894,0.0186624,0.0337677
1413393217805760512,-0.676249,0.150734,-0.307479,0.58973,0.00588105,-0.807417,-0.0161769,0.209127,-0.270009,0.212427,-0.000808187,0.0106169,0.036439,-0.0425328,0.0189664,0.0325243
1413393217855760384,-0.66552,0.136743,-0.299198,0.589747,0.00506906,-0.807418,-0.0157668,0.21797,-0.282658,0.236626,-0.00086108,0.0106583,0.0366193,-0.0423875,0.0196795,0.0325628
1413393217905760512,-0.654567,0.121646,-0.285465,0.589839,0.00494495,-0.807362,-0.0152549,0.217815,-0.309226,0.274476,-0.000848318,0.0107035,0.0367082,-0.042046,0.0201471,0.0311248
1413393217955760384,-0.64343,0.106042,-0.271968,0.590535,0.00461205,-0.806856,-0.0152086,0.227103,-0.310008,0.294019,-0.000862054,0.0107576,0.0368694,-0.0424111,0.0204342,0.0309355
1413393218005760512,-0.631774,0.089784,-0.257097,0.590218,0.00343869,-0.807113,-0.0141017,0.234038,-0.329752,0.270886,-0.000876302,0.0108272,0.0370177,-0.0424991,0.020636,0.0305699
1413393218055760384,-0.619766,0.0727929,-0.244804,0.590669,0.00130781,-0.806837,-0.0111353,0.23805,-0.34203,0.219067,-0.000874556,0.01083,0.0370574,-0.0417526,0.0212963,0.0304545
1413393218105760512,-0.607668,0.0556146,-0.234975,0.590215,-0.00146957,-0.807206,-0.00791653,0.242824,-0.333907,0.191678,-0.00088089,0.0108498,0.0371996,-0.0417526,0.0216158,0.0296696
1413393218155760384,-0.595366,0.0383544,-0.227358,0.590126,-0.00544172,-0.807289,-0.0026904,0.246029,-0.353062,0.140958,-0.000900134,0.010851,0.0373338,-0.0418382,0.0226152,0.0297977
1413393218205760512,-0.582593,0.0206783,-0.221487,0.590341,-0.00925804,-0.807094,0.00355827,0.256295,-0.348184,0.0891644,-0.000877532,0.0108722,0.0373981,-0.0421399,0.0232008,0.0291037
1413393218255760384,-0.569265,0.00380926,-0.218027,0.589443,-0.0139416,-0.807635,0.00940124,0.272715,-0.314776,0.0401194,-0.000841174,0.0108927,0.0375122,-0.0426612,0.0238897,0.0285403
1413393218305760512,-0.555765,-0.0121342,-0.217564,0.588035,-0.0175358,-0.808527,0.0138915,0.266105,-0.315912,0.00418097,-0.000918825,0.0109594,0.037657,-0.0438608,0.0246049,0.0287153
1413393218355760384,-0.542018,-0.0272694,-0.218027,0.587804,-0.0173388,-0.808693,0.0142475,0.275352,-0.286103,-0.035835,-0.000852801,0.0109407,0.0377349,-0.0444345,0.0253888,0.0283521
1413393218405760512,-0.527981,-0.0409686,-0.218653,0.588587,-0.0151766,-0.808236,0.0095125,0.282285,-0.247259,-0.0615146,-0.000850291,0.0109806,0.0378667,-0.0454829,0.0259216,0.0285564
1413393218455760384,-0.513651,-0.0537041,-0.222371,0.588867,-0.0119078,-0.808131,0.00426372,0.285919,-0.252492,-0.0911851,-0.000919284,0.0110256,0.0380018,-0.0466317,0.0260975,0.0285596
1413393218505760512,-0.498947,-0.0658503,-0.227813,0.589697,-0.00853748,-0.807579,-0.000840423,0.294378,-0.235472,-0.085408,-0.000881169,0.0110656,0.0380967,-0.0480769,0.0265731,0.0285818
1413393218555760384,-0.483976,-0.0774435,-0.233194,0.590217,-0.00571674,-0.807199,-0.00638695,0.303128,-0.218281,-0.0837231,-0.000890025,0.0110849,0.0382234,-0.049425,0.0273131,0.0278137
1413393218605760512,-0.468745,-0.0893118,-0.237641,0.591353,-0.00312924,-0.806348,-0.00978703,0.304687,-0.248118,-0.0757953,-0.000921897,0.0111443,0.0383205,-0.0507772,0.0280234,0.0270226
1413393218655760384,-0.453217,-0.101546,-0.24154,0.592089,-0.00138753,-0.805781,-0.0120697,0.315382,-0.24066,-0.0747458,-0.000916121,0.0111786,0.0384068,-0.052076,0.0289838,0.026322
1413393218705760512,-0.437309,-0.113782,-0.244971,0.59219,-0.0019766,-0.805701,-0.0124235,0.322553,-0.238698,-0.0607435,-0.000924971,0.0112096,0.0384995,-0.0531133,0.0300936,0.0260844
1413393218755760384,-0.421058,-0.126713,-0.247556,0.590666,-0.000854472,-0.806806,-0.0132874,0.32552,-0.26855,-0.0561209,-0.000957135,0.0112585,0.0386029,-0.0543916,0.030809,0.0246281
1413393218805760512,-0.404454,-0.139745,-0.249996,0.586432,-0.00170667,-0.80991,-0.0118401,0.336442,-0.256483,-0.052551,-0.000956558,0.0113243,0.0387423,-0.0558872,0.0322162,0.0236762
1413393218855760384,-0.387692,-0.15297,-0.253037,0.579701,-0.00546914,-0.814771,-0.00817219,0.3338,-0.257405,-0.0434725,-0.000972498,0.0114028,0.0388265,-0.0572288,0.0332104,0.0227762
1413393218905760512,-0.371334,-0.166412,-0.255807,0.572852,-0.00799739,-0.819608,-0.00437654,0.321438,-0.272904,-0.0405635,-0.00101524,0.0113944,0.0389442,-0.057376,0.0356157,0.0228924
1413393218955760384,-0.355604,-0.179313,-0.258964,0.567048,-0.0101726,-0.823621,-0.00170498,0.307269,-0.250263,-0.0139178,-0.00100129,0.0114146,0.0389786,-0.0573917,0.0376385,0.0226149
1413393219005760512,-0.340987,-0.191598,-0.259747,0.563362,-0.0121445,-0.826121,-0.000157139,0.283085,-0.240442,0.00822784,-0.00103792,0.011462,0.0391249,-0.0580604,0.0396665,0.0236155
1413393219055760384,-0.327723,-0.203774,-0.259364,0.561478,-0.0129924,-0.827388,0.00179128,0.252114,-0.241558,0.0300538,-0.00103385,0.0114864,0.0391698,-0.058414,0.0412302,0.0217632
1413393219105760512,-0.315907,-0.215259,-0.256243,0.561873,-0.0127876,-0.827123,0.00186918,0.225477,-0.221318,0.0591252,-0.00102129,0.0114906,0.0392839,-0.0591376,0.0427636,0.0202364
1413393219155760384,-0.305503,-0.226325,-0.246834,0.563045,-0.0130929,-0.826318,0.00275796,0.196322,-0.211259,0.0662953,-0.00105885,0.0115619,0.0394023,-0.0606031,0.0439422,0.0197896
1413393219205760512,-0.29632,-0.236901,-0.241996,0.563908,-0.0126775,-0.825734,0.00331314,0.170933,-0.209659,0.0830221,-0.00110693,0.0115755,0.0394738,-0.0611912,0.0451571,0.0191903
1413393219255760384,-0.288341,-0.247176,-0.231661,0.565556,-0.0122451,-0.824609,0.00404983,0.149075,-0.196906,0.105663,-0.00104946,0.0116269,0.0395549,-0.0619284,0.0475511,0.0172946
1413393219305760512,-0.281561,-0.256813,-0.225817,0.566712,-0.0111912,-0.823828,0.0044322,0.119942,-0.178938,0.112951,-0.00107884,0.0116635,0.0396871,-0.0622182,0.0495816,0.0162305
1413393219355760384,-0.276271,-0.265447,-0.220198,0.567064,-0.0108601,-0.823586,0.00516946,0.0868582,-0.176741,0.121675,-0.00106507,0.0116901,0.039794,-0.0628886,0.0518084,0.0148918
1413393219405760512,-0.272366,-0.273855,-0.21698,0.567584,-0.011002,-0.823214,0.00690505,0.063018,-0.163539,0.117164,-0.0010225,0.011784,0.039887,-0.064117,0.0539628,0.0134006
1413393219455760384,-0.270021,-0.281617,-0.213402,0.568755,-0.0107432,-0.822408,0.00692041,0.0270182,-0.147537,0.0732337,-0.00105334,0.0118486,0.0400015,-0.0646891,0.0554606,0.0118655
1413393219505760512,-0.269415,-0.288479,-0.205833,0.569746,-0.0102662,-0.821729,0.00685515,-0.000275668,-0.142329,0.0314628,-0.00108544,0.011938,0.0402161,-0.0662366,0.0564411,0.0116312
1413393219555760384,-0.270104,-0.295,-0.203495,0.571379,-0.00991526,-0.820595,0.00721659,-0.0257394,-0.130485,-0.000731436,-0.00102887,0.0119637,0.0402931,-0.0667966,0.0583496,0.0109162
1413393219605760512,-0.271674,-0.300656,-0.202491,0.572987,-0.00952657,-0.81948,0.00697863,-0.0366069,-0.119036,-0.00428806,-0.00106508,0.0120037,0.0404125,-0.0670589,0.0600393,0.010349
1413393219655760384,-0.274096,-0.305723,-0.204344,0.575148,-0.00900568,-0.817967,0.00738317,-0.0498498,-0.114238,0.0272676,-0.00102921,0.0120376,0.0405105,-0.0672396,0.0617668,0.00953236
1413393219705760512,-0.277246,-0.309942,-0.206774,0.577987,-0.00820099,-0.815976,0.006867,-0.0643708,-0.100291,0.0852396,-0.00102307,0.0121084,0.0406322,-0.0677043,0.0631771,0.00899076
1413393219755760384,-0.274778,-0.279132,-0.575256,0.580551,0.00509229,-0.814047,0.0162045,-0.0792149,-0.0932514,0.156924,-0.00122201,0.0121372,0.040693,-0.064803,0.0906581,0.014878
1413393219805760512,-0.277942,-0.283172,-0.570336,0.583734,0.00699485,-0.811793,0.0140816,-0.0631002,-0.0839197,0.207098,-0.00123115,0.0121552,0.0408017,-0.0648719,0.0922441,0.0144613
1413393219855760384,-0.281429,-0.286852,-0.559834,0.584844,0.00759589,-0.811,0.0133967,-0.0576851,-0.0742077,0.314253,-0.00121318,0.0121814,0.0409457,-0.0653492,0.0934178,0.0145711
1413393219905760512,-0.28416,-0.290362,-0.544506,0.586251,0.00859915,-0.809993,0.0121974,-0.0586294,-0.0752535,0.333856,-0.00123029,0.0122301,0.0410219,-0.0657185,0.0944489,0.0141014
1413393219955760384,-0.287148,-0.293746,-0.526964,0.587647,0.00994419,-0.808987,0.0105854,-0.064342,-0.0682624,0.332639,-0.00122431,0.0122325,0.0411435,-0.06611,0.0955338,0.0138896
1413393220005760512,-0.290101,-0.297181,-0.512285,0.588822,0.0104121,-0.808133,0.010081,-0.0556527,-0.0692986,0.291342,-0.00121544,0.0122937,0.0412632,-0.0668514,0.0963669,0.0139635
1413393220055760384,-0.292558,-0.300496,-0.498827,0.590152,0.0106707,-0.807168,0.00936699,-0.0352519,-0.0729771,0.236272,-0.00124351,0.01231,0.041364,-0.0674411,0.0971199,0.0145799
1413393220105760512,-0.294129,-0.30392,-0.486033,0.590839,0.0105462,-0.80667,0.00906349,-0.0312816,-0.0689255,0.212187,-0.00124079,0.0123405,0.0414449,-0.0680492,0.0982584,0.0145128
1413393220155760384,-0.295431,-0.307525,-0.477712,0.591381,0.0110863,-0.806273,0.0082955,-0.023265,-0.0774371,0.193525,-0.00120365,0.0123696,0.0415226,-0.0686354,0.10048,0.0138789
1413393220205760512,-0.296652,-0.311181,-0.467585,0.592068,0.0115891,-0.805768,0.00768817,-0.0205975,-0.0809002,0.217714,-0.00120435,0.0123706,0.0416147,-0.0688915,0.10172,0.0144006
1413393220255760384,-0.297596,-0.315075,-0.456012,0.59267,0.0107454,-0.805337,0.00770066,-0.0167347,-0.0739922,0.218679,-0.00119753,0.0124065,0.0416831,-0.0696073,0.102834,0.014425
1413393220305760512,-0.298138,-0.319205,-0.446924,0.593177,0.011703,-0.80496,0.00659351,-0.00473875,-0.0920333,0.225704,-0.00119999,0.0124319,0.0418025,-0.0702701,0.103927,0.0150667
1413393220355760384,-0.298208,-0.323674,-0.43541,0.593684,0.011605,-0.804585,0.00689589,0.00158339,-0.0942962,0.231305,-0.00118963,0.012453,0.0419269,-0.0710273,0.105344,0.0155894
1413393220405760512,-0.297779,-0.328418,-0.424802,0.593759,0.0110168,-0.804538,0.00693163,0.0112124,-0.090514,0.247401,-0.0011512,0.0124805,0.0419554,-0.0711429,0.10787,0.0151671
1413393220455760384,-0.296893,-0.333397,-0.412602,0.593061,0.0107501,-0.805058,0.00678698,0.0281737,-0.109676,0.243405,-0.001153,0.0124704,0.0420683,-0.0718986,0.109,0.015927
1413393220505760512,-0.295489,-0.338745,-0.398792,0.591173,0.0101463,-0.806448,0.00732221,0.0345814,-0.111875,0.230393,-0.00117193,0.0125534,0.0422259,-0.0739252,0.108883,0.0171537
1413393220555760384,-0.293458,-0.344039,-0.391523,0.589507,0.00977871,-0.80767,0.00744825,0.0483265,-0.106726,0.190856,-0.00121971,0.0124825,0.0421178,-0.0730071,0.108597,0.018231
1413393220605760512,-0.291041,-0.349715,-0.384608,0.588669,0.0092083,-0.808288,0.00742158,0.045029,-0.121473,0.132757,-0.00123517,0.0125876,0.0423358,-0.0745696,0.109425,0.018661
1413393220655760384,-0.288826,-0.355621,-0.377666,0.589282,0.00932712,-0.807837,0.00767405,0.046405,-0.126075,0.0765451,-0.00125482,0.0126126,0.0424685,-0.0757224,0.109884,0.0192693
1413393220705760512,-0.286242,-0.361545,-0.376828,0.589765,0.00835236,-0.807491,0.00810682,0.0587582,-0.109808,0.0244416,-0.00119769,0.0126786,0.0424996,-0.0766753,0.111524,0.0182985
1413393220755760384,-0.28357,-0.367478,-0.381675,0.589371,0.00661133,-0.807765,0.0107132,0.0527106,-0.134041,-0.0251771,-0.00123942,0.0126819,0.0425947,-0.0773889,0.112791,0.0188961
1413393220805760512,-0.280531,-0.373441,-0.387525,0.587133,0.00405178,-0.80935,0.0145676,0.0622372,-0.123293,-0.0175291,-0.0012249,0.0127521,0.0426781,-0.0779477,0.114106,0.018842
1413393220855760384,-0.277433,-0.379014,-0.389274,0.585456,0.000855153,-0.810501,0.018161,0.0653643,-0.0915255,0.0338962,-0.00124931,0.0128098,0.0427781,-0.078444,0.114789,0.0180369
1413393220905760512,-0.274249,-0.383846,-0.386102,0.584362,-0.000548816,-0.811232,0.0205738,0.0715782,-0.110172,0.0874314,-0.00121454,0.0128395,0.0428797,-0.0778243,0.116865,0.0167265
1413393220955760384,-0.271469,-0.388179,-0.379905,0.583148,-0.00144927,-0.812073,0.0217953,0.0595508,-0.0793253,0.193865,-0.00121857,0.0128628,0.0429743,-0.077424,0.118313,0.0162542
1413393221005760512,-0.26865,-0.391213,-0.370964,0.583685,-0.00225958,-0.81172,0.0204685,0.0490618,-0.039909,0.220051,-0.00119825,0.0128649,0.0430678,-0.0767619,0.12002,0.0157195
1413393221055760384,-0.266527,-0.39356,-0.359346,0.583149,-0.00249928,-0.812122,0.0197464,0.0439346,-0.0497584,0.250865,-0.00119375,0.012905,0.0431448,-0.075883,0.121206,0.0142804
1413393221105760512,-0.264819,-0.395259,-0.346649,0.582103,-0.00268973,-0.812876,0.0195316,0.0327041,-0.0262386,0.264193,-0.00116255,0.0129114,0.043231,-0.0748804,0.122952,0.0135059
1413393221155760384,-0.263284,-0.396038,-0.332218,0.581616,-0.00316396,-0.813254,0.0182103,0.0334506,-0.0014344,0.2814,-0.00115654,0.0129172,0.0433161,-0.0737275,0.124425,0.0129933
1413393221205760512,-0.262314,-0.396187,-0.312784,0.580392,-0.00320175,-0.814161,0.0166256,0.0180738,-0.0106953,0.288339,-0.00114038,0.0129178,0.0433952,-0.0737265,0.126126,0.0130428
1413393221255760384,-0.261315,-0.396506,-0.311276,0.578904,-0.00236929,-0.815235,0.0160156,0.0132869,0.0100132,0.284794,-0.00115666,0.0129404,0.0434906,-0.0737305,0.12687,0.0127139
1413393221305760512,-0.260995,-0.395597,-0.299469,0.577258,-0.00203379,-0.81645,0.0133473,0.00628801,0.0298863,0.270604,-0.00119923,0.0129563,0.043575,-0.073833,0.127452,0.0124785
1413393221355760384,-0.261097,-0.394754,-0.304276,0.575524,-0.00176109,-0.817683,0.0128377,-0.0110858,0.0182286,0.306369,-0.00120774,0.0129713,0.0436311,-0.0733289,0.128563,0.0114226
1413393221405760512,-0.261908,-0.393234,-0.281815,0.574019,-0.000883899,-0.818758,0.0116832,-0.0266104,0.029128,0.309105,-0.00119637,0.0130408,0.0437567,-0.0730914,0.129499,0.0116353
1413393221455760384,-0.263679,-0.391288,-0.263389,0.573571,0.000245766,-0.819104,0.00928284,-0.0422347,0.0425238,0.28849,-0.00122279,0.0130241,0.0438193,-0.0725516,0.130782,0.0113866
1413393221505760512,-0.266116,-0.389312,-0.235798,0.572812,0.000854034,-0.819647,0.00808286,-0.0577849,0.030839,0.224229,-0.00121105,0.0130862,0.0438826,-0.0731506,0.131761,0.0116071
1413393221555760384,-0.269257,-0.387702,-0.233412,0.572207,0.00307844,-0.820088,0.00504845,-0.0711261,0.0340162,0.173249,-0.00119302,0.0131384,0.0439657,-0.0730172,0.133095,0.0107805
1413393221605760512,-0.273913,-0.3854,-0.228808,0.572219,0.00448765,-0.820082,0.00334965,-0.0994079,0.0298276,0.154234,-0.00116992,0.0131212,0.0440418,-0.07186,0.133984,0.0111201
1413393221655760384,-0.278995,-0.384851,-0.224779,0.57281,0.00544801,-0.819667,0.00241976,-0.117636,0.00818627,0.158088,-0.00116968,0.0130993,0.044048,-0.0706498,0.13481,0.0100812
1413393221705760512,-0.284904,-0.384728,-0.214999,0.575921,0.00601662,-0.817482,0.00176236,-0.126771,0.011271,0.169416,-0.00118919,0.0131428,0.0441628,-0.070898,0.134869,0.00875019
1413393221755760384,-0.291119,-0.385015,-0.204438,0.579436,0.00588488,-0.814993,0.00242313,-0.134282,0.000501196,0.162457,-0.00116201,0.0133446,0.0445425,-0.0730244,0.137393,0.00655392
1413393221805760512,-0.297729,-0.385594,-0.192606,0.582637,0.00677411,-0.812699,0.00297447,-0.134122,-0.02034,0.167307,-0.00109422,0.0132119,0.0444371,-0.0701827,0.138215,0.00628093
1413393221855760384,-0.304399,-0.386401,-0.181222,0.584573,0.0073957,-0.811303,0.00289686,-0.131093,-0.0061996,0.159033,-0.00107056,0.0130783,0.0443654,-0.0672613,0.138468,0.00705385
1413393221905760512,-0.310986,-0.387383,-0.17194,0.585685,0.00732822,-0.810497,0.00371641,-0.129978,-0.0289492,0.147961,-0.00104929,0.0130848,0.0444785,-0.0669364,0.139346,0.00643697
1413393221955760384,-0.317264,-0.388926,-0.164223,0.587165,0.00791547,-0.809411,0.00532983,-0.125529,-0.0315648,0.126248,-0.000924683,0.0133152,0.0448616,-0.0703365,0.143615,0.0036512
1413393222005760512,-0.323167,-0.390506,-0.155461,0.587187,0.00769484,-0.809395,0.00573399,-0.120182,-0.0166908,0.0754241,-0.000829178,0.0134177,0.0449501,-0.0707201,0.146086,0.00310837
1413393222055760384,-0.328939,-0.392108,-0.150458,0.587809,0.00773533,-0.808936,0.00661778,-0.114318,-0.0342236,0.0167701,-0.000799042,0.013464,0.0450098,-0.0706755,0.146192,0.00395663
1413393222105760512,-0.334602,-0.394077,-0.14902,0.588423,0.00798127,-0.808474,0.00808314,-0.118962,-0.0446349,-0.0449704,-0.000809776,0.0134842,0.0450665,-0.0700167,0.145521,0.00457739
1413393222155760384,-0.340605,-0.396046,-0.152147,0.588406,0.00881338,-0.808476,0.00821015,-0.116481,-0.0310515,-0.101284,-0.00077695,0.0135646,0.045158,-0.0704786,0.144942,0.00483986
1413393222205760512,-0.346218,-0.397969,-0.156883,0.588289,0.00924954,-0.808554,0.0084545,-0.108402,-0.0392675,-0.162442,-0.00078246,0.0136307,0.0452854,-0.0706337,0.143766,0.00488203
1413393222255760384,-0.351368,-0.400021,-0.16445,0.587106,0.00967366,-0.809398,0.00942131,-0.0996814,-0.0486429,-0.215656,-0.000806816,0.0137079,0.0453838,-0.0715508,0.142885,0.00433971
1413393222305760512,-0.356172,-0.402001,-0.174418,0.584801,0.0106549,-0.811058,0.00893466,-0.0965673,-0.0322803,-0.248012,-0.00079226,0.0137562,0.0455846,-0.0721487,0.142439,0.00354596
1413393222355760384,-0.360884,-0.40393,-0.187092,0.580612,0.0105562,-0.81406,0.00919171,-0.0983723,-0.0442132,-0.248031,-0.00080261,0.0137531,0.0456277,-0.0725313,0.142019,0.00166299
1413393222405760512,-0.365801,-0.406082,-0.195627,0.576626,0.0109136,-0.816876,0.00989692,-0.104432,-0.0523311,-0.230892,-0.000861118,0.0137957,0.0457081,-0.0732622,0.142292,-0.00051167
1413393222455760384,-0.371259,-0.408129,-0.196006,0.573332,0.012412,-0.819187,0.0083589,-0.112454,-0.0432035,-0.205998,-0.000846837,0.0138363,0.0457923,-0.0729141,0.143262,-0.00381425
1413393222505760512,-0.37734,-0.410594,-0.201194,0.570576,0.0121714,-0.821101,0.0093977,-0.132376,-0.0577137,-0.176394,-0.00085373,0.013844,0.0458871,-0.0731429,0.144368,-0.00559127
1413393222555760384,-0.384061,-0.413469,-0.210569,0.56941,0.011258,-0.821885,0.0122978,-0.136163,-0.0643802,-0.115075,-0.000846666,0.0139503,0.0459846,-0.0744124,0.14622,-0.00735704
1413393222605760512,-0.391483,-0.416418,-0.217084,0.56838,0.0112413,-0.822589,0.0129036,-0.164344,-0.0560411,-0.0841012,-0.00080172,0.0140378,0.0461449,-0.0740657,0.147064,-0.00869499
1413393222655760384,-0.400076,-0.419545,-0.219643,0.566925,0.0112931,-0.823579,0.0136418,-0.191557,-0.0622633,-0.0234264,-0.000769629,0.0140351,0.0461653,-0.072629,0.146564,-0.0102299
1413393222705760512,-0.410388,-0.422616,-0.203456,0.567187,0.0123881,-0.823394,0.0129686,-0.212707,-0.0647454,0.025601,-0.000773001,0.0140577,0.0462346,-0.0717039,0.145162,-0.0101466
1413393222755760384,-0.421669,-0.425929,-0.185486,0.565713,0.0122489,-0.82439,0.0141386,-0.236199,-0.0595671,0.0590293,-0.000814133,0.0140121,0.0462803,-0.071175,0.141497,-0.00911889
1413393222805760512,-0.434026,-0.429215,-0.168672,0.563994,0.0124434,-0.825556,0.0146267,-0.260618,-0.0608649,0.108863,-0.000838869,0.0139994,0.0463507,-0.0709732,0.138501,-0.00807507
1413393222855760384,-0.44716,-0.432368,-0.161072,0.561944,0.0124738,-0.826938,0.0154073,-0.277145,-0.0594349,0.137187,-0.000864744,0.0140272,0.0464173,-0.0705649,0.13703,-0.00854971
1413393222905760512,-0.461491,-0.435828,-0.169264,0.560897,0.0127357,-0.827614,0.0169416,-0.302682,-0.0571853,0.176698,-0.000850028,0.0140486,0.046485,-0.0703796,0.134763,-0.00870773
1413393222955760384,-0.477333,-0.438822,-0.164003,0.55927,0.0136861,-0.828684,0.0176948,-0.335187,-0.0565058,0.221657,-0.000860735,0.0140625,0.0465664,-0.070176,0.134665,-0.00967285
1413393223005760512,-0.494277,-0.442501,-0.195736,0.560416,0.014772,-0.827891,0.0176724,-0.351366,-0.0547538,0.23132,-0.000854679,0.0140191,0.0466224,-0.0680303,0.132709,-0.00832235
1413393223055760384,-0.51264,-0.445667,-0.189766,0.562389,0.016485,-0.826511,0.0180784,-0.378374,-0.0579221,0.250447,-0.000836438,0.0140334,0.0467357,-0.0676745,0.13143,-0.0079242
1413393223105760512,-0.532064,-0.448841,-0.186527,0.56426,0.0174812,-0.825198,0.0187852,-0.402042,-0.0510572,0.250165,-0.000888055,0.0140189,0.0468592,-0.0669606,0.129037,-0.00768547
1413393223155760384,-0.552576,-0.451371,-0.170952,0.565855,0.0181121,-0.824112,0.0178928,-0.427709,-0.0541549,0.252068,-0.000870744,0.014011,0.0469597,-0.0671161,0.130034,-0.0103903
1413393223205760512,-0.574298,-0.454236,-0.141932,0.567826,0.0208974,-0.822717,0.0165772,-0.445014,-0.0641583,0.256553,-0.000887961,0.0139779,0.0471208,-0.0664733,0.128271,-0.0129594
1413393223255760384,-0.596934,-0.457275,-0.128388,0.568935,0.0218638,-0.821944,0.0156302,-0.462203,-0.0607208,0.216824,-0.00092483,0.013923,0.0471047,-0.0669201,0.128994,-0.0143885
1413393223305760512,-0.620353,-0.460913,-0.120531,0.570604,0.0222908,-0.820773,0.0157022,-0.479004,-0.0791409,0.180523,-0.000964535,0.0138959,0.0471654,-0.0671148,0.128911,-0.0155413
1413393223355760384,-0.644669,-0.465009,-0.11477,0.571607,0.0227473,-0.820072,0.0152007,-0.496217,-0.0863074,0.0969791,-0.000997393,0.0138685,0.0472939,-0.0673074,0.128999,-0.0162793
1413393223405760512,-0.6697,-0.469404,-0.112477,0.573263,0.0230443,-0.818907,0.015146,-0.503875,-0.0926427,-0.00348532,-0.000997399,0.0138685,0.047294,-0.0674693,0.128935,-0.0167765
1413393223455760384,-0.695289,-0.473965,-0.115125,0.575352,0.0236784,-0.817442,0.0140954,-0.51528,-0.0982728,-0.11925,-0.00136955,0.0138154,0.0472813,-0.0675655,0.12925,-0.0171138
1413393223505760512,-0.72115,-0.479002,-0.123524,0.57804,0.0237157,-0.815552,0.0135473,-0.521272,-0.10324,-0.218185,-0.00136954,0.0138155,0.0472815,-0.0676359,0.129092,-0.0175404
1413393223555760384,-0.747208,-0.484407,-0.136369,0.580791,0.0230435,-0.813614,0.0135687,-0.527559,-0.112567,-0.296921,-0.00147933,0.0137632,0.0472963,-0.0676545,0.129061,-0.0178429
1413393223605760512,-0.77337,-0.489914,-0.152142,0.58343,0.0228049,-0.811747,0.0125161,-0.514557,-0.111905,-0.367879,-0.00151474,0.0137411,0.0472965,-0.0676655,0.12918,-0.0184276
1413393223655760384,-0.798769,-0.495393,-0.166978,0.585679,0.0217577,-0.810171,0.0113965,-0.510576,-0.118728,-0.400227,-0.001577,0.0137756,0.0473061,-0.0686624,0.130413,-0.0195236
1413393223705760512,-0.824041,-0.500818,-0.170514,0.586693,0.0203702,-0.809486,0.0104532,-0.502427,-0.126069,-0.375703,-0.00155208,0.0139438,0.0474263,-0.0710086,0.133992,-0.0206119
1413393223755760384,-0.848856,-0.507014,-0.183052,0.587579,0.0190599,-0.808889,0.00933637,-0.50255,-0.136712,-0.302534,-0.00154908,0.0141078,0.0474973,-0.0727561,0.136748,-0.0217379
1413393223805760512,-0.872923,-0.513811,-0.196975,0.588734,0.0168508,-0.808103,0.00886428,-0.492999,-0.156203,-0.245669,-0.001573,0.0143154,0.0474833,-0.0741733,0.13974,-0.0245933
1413393223855760384,-0.897099,-0.521619,-0.208702,0.58755,0.0151475,-0.809008,0.0079185,-0.471098,-0.16643,-0.150099,-0.00154505,0.0144046,0.0476352,-0.0743361,0.141073,-0.0257038
1413393223905760512,-0.92079,-0.529994,-0.213948,0.587878,0.0144213,-0.808806,0.0050543,-0.490572,-0.172803,-0.0830431,-0.00158171,0.0144238,0.0476844,-0.0738829,0.140918,-0.0265938
1413393223955760384,-0.9449,-0.539271,-0.216183,0.587543,0.0128021,-0.809083,0.00369502,-0.488404,-0.193669,-0.0233652,-0.00167232,0.0143427,0.04765,-0.0729735,0.139838,-0.0274699
1413393224005760512,-0.969166,-0.549288,-0.220152,0.58842,0.0111833,-0.808473,0.00280362,-0.488329,-0.204967,0.0112007,-0.00174152,0.014271,0.0477258,-0.0721382,0.138506,-0.0277306
1413393224055760384,-0.993653,-0.559863,-0.224268,0.587751,0.00889236,-0.808989,0.00267054,-0.489881,-0.215026,0.0041206,-0.00174957,0.014277,0.0479339,-0.0720428,0.13748,-0.0270838
1413393224105760512,-1.01817,-0.570569,-0.212075,0.588816,0.0064111,-0.808238,0.00265146,-0.481,-0.235522,-0.0411633,-0.00171872,0.0144069,0.0481217,-0.0711082,0.138773,-0.0267803
1413393224155760384,-1.04224,-0.582311,-0.197797,0.589363,0.00525232,-0.807849,0.00186512,-0.473077,-0.243268,-0.0694813,-0.00169702,0.0143378,0.0483352,-0.0705533,0.135407,-0.0252159
1413393224205760512,-1.06584,-0.594506,-0.180784,0.589157,0.00679819,-0.80799,-0.000126784,-0.459831,-0.255632,-0.135039,-0.00169783,0.0143533,0.0485192,-0.070007,0.133208,-0.0240799
1413393224255760384,-1.08913,-0.60746,-0.184047,0.590279,0.00586778,-0.807177,-0.00149701,-0.454895,-0.265992,-0.165688,-0.001665,0.0143218,0.0486887,-0.0693741,0.129817,-0.0226308
1413393224305760512,-1.11156,-0.621032,-0.192946,0.59182,0.00437447,-0.806057,-0.00162479,-0.439485,-0.276011,-0.229939,-0.00167025,0.0143918,0.0487701,-0.0692622,0.128007,-0.0218301
1413393224355760384,-1.13377,-0.635022,-0.202898,0.592034,0.0054989,-0.805889,-0.003107,-0.440422,-0.280046,-0.280153,-0.00168676,0.0144404,0.0488447,-0.0684675,0.126043,-0.0212958
1413393224405760512,-1.15566,-0.649105,-0.212598,0.591758,0.00409469,-0.806091,-0.00478791,-0.434735,-0.279606,-0.322951,-0.0016997,0.0145362,0.0489599,-0.0683952,0.123792,-0.0205409
1413393224455760384,-1.17723,-0.663457,-0.226916,0.592732,0.000354249,-0.805382,-0.00545435,-0.422924,-0.291884,-0.369928,-0.00167564,0.0145631,0.0490372,-0.0670268,0.121288,-0.0202219
1413393224505760512,-1.19788,-0.677925,-0.252162,0.593024,-0.00467228,-0.805145,-0.00657138,-0.405362,-0.284968,-0.418733,-0.00165938,0.0146061,0.0491237,-0.0658863,0.119288,-0.0200291
1413393224555760384,-1.21778,-0.692155,-0.277577,0.59282,-0.0121451,-0.805216,-0.00660696,-0.39692,-0.283533,-0.45178,-0.00163177,0.0146684,0.0492434,-0.064915,0.117721,-0.0199703
1413393224605760512,-1.23726,-0.706259,-0.302278,0.593739,-0.0197561,-0.804376,-0.00801194,-0.38609,-0.275104,-0.468954,-0.00161337,0.0147007,0.0492859,-0.0636088,0.115886,-0.0203169
1413393224655760384,-1.25656,-0.719766,-0.324697,0.593654,-0.0282967,-0.804163,-0.00979715,-0.375025,-0.256551,-0.427777,-0.00159289,0.0147257,0.0493359,-0.0619198,0.114274,-0.0204417
1413393224705760512,-1.27443,-0.732752,-0.349277,0.591847,-0.0366328,-0.805127,-0.0121163,-0.34956,-0.257779,-0.425888,-0.00158164,0.0147501,0.0494422,-0.0602491,0.112765,-0.0198845
1413393224755760384,-1.29181,-0.744893,-0.370685,0.59005,-0.045283,-0.805971,-0.0142073,-0.347436,-0.235933,-0.41158,-0.00155974,0.014775,0.0494929,-0.0586092,0.111636,-0.0192844
1413393224805760512,-1.30838,-0.756199,-0.390357,0.588382,-0.0533879,-0.806607,-0.0184811,-0.312105,-0.207028,-0.39407,-0.00151871,0.014807,0.0495885,-0.0570461,0.11066,-0.0181028
1413393224855760384,-1.3237,-0.766524,-0.410546,0.586547,-0.0617488,-0.807265,-0.0217579,-0.302713,-0.209567,-0.343944,-0.00150545,0.0148305,0.0496205,-0.0549627,0.109919,-0.0170212
1413393224905760512,-1.33913,-0.776147,-0.420004,0.585713,-0.0675947,-0.807297,-0.0253484,-0.305664,-0.189599,-0.284662,-0.00145056,0.0148254,0.0496814,-0.0528264,0.108967,-0.0152008
1413393224955760384,-1.35336,-0.785084,-0.431467,0.584091,-0.0735381,-0.807857,-0.0282432,-0.275482,-0.161473,-0.220387,-0.00140887,0.0148217,0.0497761,-0.0510178,0.108362,-0.0136351
1413393225005760512,-1.36697,-0.793448,-0.447193,0.58261,-0.0769192,-0.808464,-0.0321814,-0.275961,-0.169783,-0.145594,-0.00140842,0.0148114,0.0497979,-0.0494724,0.108033,-0.0123999
1413393225055760384,-1.38081,-0.801241,-0.453305,0.581079,-0.0784718,-0.809254,-0.0360292,-0.276014,-0.151985,-0.127974,-0.00137288,0.0147947,0.049873,-0.0480726,0.107426,-0.0110252
1413393225105760512,-1.39503,-0.808121,-0.457309,0.580105,-0.0806593,-0.809589,-0.0392091,-0.269442,-0.123099,-0.0564885,-0.00135994,0.0147584,0.0499202,-0.0468633,0.106967,-0.0102112
1413393225155760384,-1.40833,-0.814622,-0.45968,0.579949,-0.0818863,-0.809449,-0.0417851,-0.262695,-0.136049,-0.0726749,-0.001328,0.0147457,0.0499666,-0.0459597,0.106479,-0.00954392
1413393225205760512,-1.42109,-0.820936,-0.461948,0.57935,-0.083613,-0.8097,-0.0418199,-0.255843,-0.119347,-0.0601672,-0.00130488,0.0147092,0.0500097,-0.0455145,0.106185,-0.00937744
1413393225255760384,-1.43332,-0.826623,-0.465057,0.578587,-0.0842481,-0.810078,-0.043742,-0.238859,-0.106146,-0.0504475,-0.00127002,0.0147016,0.050071,-0.04564,0.105866,-0.00934825
1413393225305760512,-1.44525,-0.831686,-0.461727,0.577659,-0.0861588,-0.810487,-0.0447013,-0.236689,-0.108361,-0.0751278,-0.00127135,0.0146874,0.05008,-0.0447446,0.106549,-0.00978126
1413393225355760384,-1.45695,-0.836165,-0.463457,0.577625,-0.0888331,-0.810084,-0.0471529,-0.221635,-0.0795103,-0.0533541,-0.0012374,0.0147,0.0501539,-0.0456222,0.106105,-0.0100588
1413393225405760512,-1.46822,-0.839921,-0.466636,0.576852,-0.0948887,-0.809891,-0.0481128,-0.228639,-0.062698,-0.0317163,-0.00120232,0.0146314,0.0502604,-0.0458629,0.10591,-0.0108164
1413393225455760384,-1.48022,-0.842693,-0.467501,0.575812,-0.101804,-0.809679,-0.0499708,-0.243465,-0.052133,-0.0170669,-0.00118321,0.0145864,0.0502882,-0.0460741,0.105877,-0.0117994
1413393225505760512,-1.49214,-0.844296,-0.46104,0.575723,-0.110917,-0.808398,-0.0522823,-0.231686,-0.0159489,-0.00403438,-0.00115865,0.0145335,0.0503673,-0.0471365,0.106164,-0.012961
1413393225555760384,-1.5038,-0.844558,-0.455811,0.573897,-0.120711,-0.808043,-0.0560265,-0.224786,0.0046867,0.00736562,-0.00116061,0.0145067,0.0504112,-0.0478941,0.106868,-0.0142703
1413393225605760512,-1.51551,-0.843399,-0.454836,0.572865,-0.131853,-0.806682,-0.0608688,-0.245081,0.0349982,0.0394331,-0.00115685,0.0144393,0.0504115,-0.048372,0.107569,-0.0153838
1413393225655760384,-1.52738,-0.840604,-0.447406,0.572366,-0.142658,-0.804656,-0.067645,-0.233962,0.0724905,0.050115,-0.00115827,0.0143899,0.0504395,-0.0491123,0.108445,-0.0163194
1413393225705760512,-1.53868,-0.83649,-0.444358,0.571869,-0.155086,-0.802047,-0.075074,-0.227493,0.0993318,0.0741219,-0.00117778,0.0143324,0.0504331,-0.0497495,0.108846,-0.0168144
1413393225755760384,-1.5499,-0.831164,-0.440336,0.571126,-0.16513,-0.799515,-0.0855831,-0.230879,0.110705,0.0795932,-0.00119238,0.0142497,0.0504772,-0.0504318,0.109334,-0.0173446
1413393225805760512,-1.56072,-0.824608,-0.435935,0.57043,-0.174286,-0.796695,-0.0975296,-0.20868,0.145796,0.104993,-0.00118832,0.0141807,0.0504817,-0.0509571,0.1093,-0.0175925
1413393225855760384,-1.57048,-0.817353,-0.431973,0.56655,-0.184113,-0.795348,-0.112004,-0.192098,0.151551,0.045526,-0.00120301,0.0141543,0.0504783,-0.0520211,0.111087,-0.0186091
1413393225905760512,-1.57993,-0.809915,-0.437107,0.565706,-0.190058,-0.793007,-0.122456,-0.189252,0.151744,-0.0481605,-0.00121382,0.0141433,0.0505202,-0.0530691,0.113801,-0.0199491
1413393225955760384,-1.58951,-0.802159,-0.442307,0.561671,-0.198636,-0.791308,-0.13748,-0.198239,0.158816,-0.154983,-0.00123621,0.0141347,0.0505228,-0.0541784,0.115617,-0.0212465
1413393226005760512,-1.59933,-0.794392,-0.451886,0.560441,-0.205722,-0.787944,-0.150765,-0.197973,0.15332,-0.229388,-0.00127245,0.014114,0.0505411,-0.0545775,0.116811,-0.0212201
1413393226055760384,-1.60939,-0.787033,-0.464704,0.559574,-0.216515,-0.783593,-0.161185,-0.205433,0.143954,-0.247008,-0.00126054,0.0141461,0.0506214,-0.0553367,0.119022,-0.021287
1413393226105760512,-1.61959,-0.780516,-0.468378,0.558688,-0.227818,-0.779541,-0.168172,-0.211854,0.119211,-0.24225,-0.00119735,0.0142061,0.0506848,-0.0558084,0.122723,-0.0210659
1413393226155760384,-1.6305,-0.774692,-0.485749,0.558387,-0.238882,-0.775133,-0.174091,-0.220528,0.116807,-0.205717,-0.00125131,0.0141684,0.050712,-0.0566948,0.123827,-0.0218377
1413393226205760512,-1.6417,-0.76927,-0.487876,0.557461,-0.249687,-0.77123,-0.179162,-0.222532,0.0935353,-0.141498,-0.00126547,0.0142095,0.0507006,-0.0578325,0.125986,-0.0225492
1413393226255760384,-1.65402,-0.763974,-0.459768,0.556202,-0.260048,-0.768164,-0.181488,-0.244391,0.0955261,-0.070972,-0.00136462,0.0143658,0.0507635,-0.0607529,0.129777,-0.0242772
1413393226305760512,-1.66597,-0.758872,-0.453743,0.554986,-0.26779,-0.765621,-0.18467,-0.230544,0.0947489,-0.0548599,-0.0013446,0.014354,0.0507751,-0.0603677,0.130794,-0.0235979
1413393226355760384,-1.67841,-0.753662,-0.41059,0.552752,-0.276379,-0.764262,-0.184349,-0.244152,0.0880952,-0.0151452,-0.00133456,0.0144156,0.0507886,-0.0608056,0.13447,-0.0241653
1413393226405760512,-1.69088,-0.748474,-0.352338,0.549244,-0.282928,-0.764261,-0.184899,-0.239902,0.0894337,-0.024565,-0.00138887,0.0145481,0.0508112,-0.0620415,0.139725,-0.0263385
1413393226455760384,-1.7025,-0.743931,-0.357053,0.545046,-0.288656,-0.765233,-0.184449,-0.244941,0.0914969,-0.0524517,-0.00137318,0.0145637,0.0509376,-0.0615325,0.141273,-0.0257608
1413393226505760512,-1.7149,-0.738858,-0.338602,0.541394,-0.293137,-0.766265,-0.183851,-0.258357,0.0973052,-0.103976,-0.00133673,0.0145414,0.0510307,-0.0606032,0.141884,-0.0252951
1413393226555760384,-1.72766,-0.733492,-0.347279,0.539215,-0.296703,-0.766726,-0.182612,-0.263017,0.105057,-0.142872,-0.00139388,0.0145123,0.051089,-0.0607282,0.142637,-0.0266608
1413393226605760512,-1.74011,-0.727316,-0.367941,0.536968,-0.299093,-0.767627,-0.181541,-0.263268,0.12275,-0.17204,-0.00145038,0.0144815,0.0511181,-0.0605731,0.143674,-0.0278256
1413393226655760384,-1.75471,-0.721042,-0.369375,0.535936,-0.300308,-0.767744,-0.182092,-0.276503,0.138203,-0.154564,-0.00148057,0.0147835,0.0512919,-0.0638429,0.147588,-0.0296911
1413393226705760512,-1.76475,-0.711818,-0.373056,0.538749,-0.28992,-0.769955,-0.18129,-0.296402,0.150968,-0.147727,-0.00214754,0.0151125,0.0517162,-0.069524,0.163698,-0.0396919
1413393226755760384,-1.78158,-0.70504,-0.361829,0.540047,-0.287891,-0.768366,-0.187303,-0.298861,0.172968,-0.125068,-0.00211752,0.0151033,0.0516956,-0.0692342,0.166272,-0.0407368
1413393226805760512,-1.79667,-0.696589,-0.370648,0.540434,-0.28449,-0.768135,-0.192264,-0.326375,0.161903,-0.10686,-0.00222494,0.0151768,0.051776,-0.0697822,0.166307,-0.0426957
1413393226855760384,-1.81318,-0.688061,-0.377039,0.540929,-0.281075,-0.768238,-0.195455,-0.334999,0.164626,-0.125149,-0.00224194,0.0152057,0.0518393,-0.0699407,0.166557,-0.0439361
1413393226905760512,-1.8291,-0.679258,-0.400265,0.540768,-0.27633,-0.769378,-0.198166,-0.346247,0.16198,-0.10673,-0.00211458,0.0152162,0.0521578,-0.0680911,0.166342,-0.0419032
1413393226955760384,-1.84743,-0.671532,-0.40446,0.540628,-0.274736,-0.769634,-0.199763,-0.369369,0.148856,-0.0865652,-0.00216478,0.0152362,0.052156,-0.0686291,0.165615,-0.0437095
1413393227005760512,-1.86626,-0.664274,-0.409045,0.5406,-0.27309,-0.769947,-0.200889,-0.379904,0.143425,-0.0824681,-0.00212608,0.0152995,0.0522149,-0.0691693,0.165276,-0.04499
1413393227055760384,-1.88565,-0.657248,-0.410718,0.5414,-0.272962,-0.76942,-0.200926,-0.397305,0.138348,-0.072815,-0.00208544,0.0153895,0.0523124,-0.0699899,0.163983,-0.0458638
1413393227105760512,-1.905,-0.650987,-0.419105,0.542973,-0.273364,-0.768237,-0.200661,-0.40777,0.12566,-0.074466,-0.00169942,0.0155192,0.0525651,-0.0698746,0.163217,-0.0451823
1413393227155760384,-1.92657,-0.645221,-0.408604,0.544263,-0.276519,-0.766265,-0.200383,-0.416724,0.121667,-0.0603021,-0.00162127,0.0155163,0.0525196,-0.0717671,0.160411,-0.0485265
1413393227205760512,-1.9472,-0.639724,-0.40571,0.546042,-0.278125,-0.764845,-0.198738,-0.422361,0.118075,-0.0414326,-0.00158309,0.015562,0.0525188,-0.0734592,0.159468,-0.051579
1413393227255760384,-1.96783,-0.634113,-0.399986,0.548507,-0.28086,-0.762883,-0.195623,-0.423428,0.118342,-0.0186676,-0.00157604,0.0156092,0.0525539,-0.0753746,0.157941,-0.0545236
1413393227305760512,-1.98864,-0.62884,-0.402334,0.548707,-0.282706,-0.762411,-0.194235,-0.422908,0.115991,-0.0306558,-0.00160457,0.0156298,0.0525984,-0.0770033,0.156512,-0.0570997
1413393227355760384,-2.01073,-0.62305,-0.411731,0.549843,-0.284166,-0.761301,-0.193244,-0.421435,0.113849,-0.0212285,-0.00137166,0.0157783,0.0528495,-0.0785213,0.156142,-0.058279
1413393227405760512,-2.02984,-0.617581,-0.40149,0.549863,-0.283723,-0.762099,-0.190675,-0.417083,0.121009,-0.0160027,-0.00168382,0.0158435,0.0528335,-0.0802983,0.155703,-0.0580349
1413393227455760384,-2.0514,-0.610932,-0.397903,0.550025,-0.285474,-0.76162,-0.189507,-0.416344,0.127432,-0.0158398,-0.00172353,0.0158485,0.0528337,-0.0815429,0.154517,-0.0595294
1413393227505760512,-2.07209,-0.604895,-0.403418,0.550118,-0.286693,-0.761129,-0.189368,-0.413875,0.132541,-0.0190264,-0.00172437,0.0158836,0.0528726,-0.0823672,0.153714,-0.060337
1413393227555760384,-2.09316,-0.597613,-0.408749,0.551157,-0.288969,-0.75941,-0.189788,-0.406529,0.149699,-0.0138405,-0.00175337,0.01573,0.0528696,-0.0818356,0.153723,-0.0632005
1413393227605760512,-2.11294,-0.589587,-0.395802,0.551724,-0.29261,-0.757378,-0.190683,-0.39833,0.159282,-0.0107576,-0.0017392,0.0157194,0.0529019,-0.0824883,0.152823,-0.0651595
1413393227655760384,-2.13299,-0.581461,-0.406652,0.551309,-0.296322,-0.755666,-0.192928,-0.386574,0.176141,-0.00247828,-0.00173332,0.0157567,0.0529347,-0.0838822,0.152377,-0.0673988
1413393227705760512,-2.1522,-0.572608,-0.410224,0.549991,-0.301634,-0.753756,-0.195907,-0.371459,0.193143,-0.00600199,-0.00173336,0.0157274,0.0529552,-0.0843739,0.151908,-0.0690482
1413393227755760384,-2.171,-0.563158,-0.415147,0.548895,-0.308291,-0.750975,-0.199267,-0.358011,0.205132,-0.0177486,-0.00172341,0.0156792,0.0530195,-0.0840041,0.151667,-0.0714995
1413393227805760512,-2.18767,-0.550601,-0.392148,0.546063,-0.316441,-0.747618,-0.206756,-0.345392,0.213167,-0.0338312,-0.00147029,0.0157442,0.0529523,-0.0860881,0.144882,-0.07382
1413393227855760384,-2.2041,-0.539496,-0.389588,0.545169,-0.324445,-0.743837,-0.210318,-0.32968,0.231379,-0.0332902,-0.00145748,0.015643,0.0530307,-0.0850708,0.14531,-0.0752962
1413393227905760512,-2.22044,-0.527829,-0.39081,0.543377,-0.332502,-0.740194,-0.215168,-0.324782,0.2377,-0.0195471,-0.0014504,0.0156659,0.0530598,-0.0852444,0.14539,-0.0763331
1413393227955760384,-2.23604,-0.515736,-0.392149,0.542367,-0.340776,-0.735483,-0.220852,-0.301974,0.247193,-0.0209832,-0.00144395,0.0157361,0.0531045,-0.0861178,0.145378,-0.0769329
1413393228005760512,-2.25049,-0.502952,-0.393805,0.540226,-0.35043,-0.730721,-0.226721,-0.274704,0.266251,-0.0358919,-0.00144783,0.0157362,0.053133,-0.0866243,0.145529,-0.0777309
1413393228055760384,-2.26405,-0.489582,-0.395456,0.537456,-0.359738,-0.725771,-0.234491,-0.270875,0.270263,-0.042468,-0.00145261,0.0157757,0.0531498,-0.0876147,0.145645,-0.078183
1413393228105760512,-2.27702,-0.475821,-0.397343,0.534639,-0.369366,-0.720805,-0.241184,-0.254601,0.282225,-0.0175489,-0.00143036,0.015817,0.0531718,-0.0883746,0.145655,-0.0785868
1413393228155760384,-2.28916,-0.461433,-0.398952,0.530316,-0.378626,-0.716502,-0.249064,-0.233329,0.290578,-0.0389758,-0.00140447,0.0159062,0.0532456,-0.0887154,0.145457,-0.0790626
1413393228205760512,-2.30067,-0.446694,-0.400751,0.525994,-0.388008,-0.712416,-0.255427,-0.231492,0.295476,-0.026296,-0.00125449,0.0160218,0.0532169,-0.0892549,0.145026,-0.0787987
1413393228255760384,-2.31178,-0.431543,-0.402182,0.521578,-0.395046,-0.709128,-0.262742,-0.220286,0.302757,-0.0171958,-0.00116062,0.0161334,0.0533192,-0.0899133,0.145087,-0.0788634
1413393228305760512,-2.32265,-0.416107,-0.40303,0.517697,-0.401536,-0.705819,-0.269405,-0.21541,0.308432,-0.0106296,-0.00112946,0.0161693,0.0533641,-0.0896631,0.14513,-0.0793936
1413393228355760384,-2.33334,-0.400336,-0.403275,0.514178,-0.407096,-0.702725,-0.275809,-0.21578,0.316553,0.00155263,-0.00109284,0.0161492,0.0534141,-0.0889114,0.144933,-0.0800534
1413393228405760512,-2.34368,-0.384135,-0.40349,0.510501,-0.412915,-0.699345,-0.282502,-0.200262,0.325678,0.00900922,-0.000987645,0.0162018,0.0534873,-0.0886643,0.144965,-0.0803054
1413393228455760384,-2.35366,-0.367663,-0.402456,0.507587,-0.419767,-0.695093,-0.288092,-0.196929,0.331273,0.0183386,-0.000908245,0.0162284,0.0535309,-0.0881084,0.144918,-0.0805777
1413393228505760512,-2.36364,-0.351096,-0.400046,0.506111,-0.425361,-0.690046,-0.294547,-0.206682,0.327168,0.0188906,-0.000813146,0.016282,0.0535826,-0.0876914,0.144997,-0.0806897
1413393228555760384,-2.37344,-0.334613,-0.399534,0.504175,-0.431776,-0.68516,-0.299888,-0.187089,0.332084,0.0134905,-0.000744769,0.0163262,0.0535863,-0.0872074,0.145739,-0.0813197
1413393228605760512,-2.38305,-0.318115,-0.397831,0.500729,-0.438544,-0.68132,-0.304553,-0.19012,0.330349,0.017103,-0.00070912,0.0163736,0.0536335,-0.0868842,0.146215,-0.0819644
1413393228655760384,-2.39287,-0.301797,-0.395607,-0.498477,0.444545,0.677743,0.307513,-0.198115,0.326027,0.0228241,-0.00071325,0.0164704,0.0536333,-0.0871984,0.146962,-0.0827722
1413393228705760512,-2.40248,-0.285433,-0.394302,-0.495317,0.448635,0.675796,0.310946,-0.185839,0.331273,0.0170525,-0.000687172,0.0164341,0.0536786,-0.0853212,0.146586,-0.0836059
1413393228755760384,-2.41221,-0.269035,-0.394279,-0.492851,0.453138,0.673764,0.312739,-0.196985,0.329628,0.0238436,-0.000694459,0.0164057,0.0537386,-0.0838967,0.14626,-0.0845378
1413393228805760512,-2.42233,-0.252201,-0.39263,-0.490146,0.457687,0.672986,0.312041,-0.205846,0.344405,0.00749287,-0.000738725,0.0163235,0.0537992,-0.0817464,0.144477,-0.0849788
1413393228855760384,-2.43188,-0.234169,-0.388261,-0.48742,0.462256,0.672633,0.310332,-0.196067,0.355061,-0.00434841,-0.000401118,0.0164529,0.0538055,-0.0800258,0.145919,-0.0812689
1413393228905760512,-2.44163,-0.216078,-0.392399,-0.483804,0.465808,0.673883,0.307958,-0.194996,0.368589,-0.00250541,-0.000327462,0.0164496,0.0538731,-0.0783138,0.144383,-0.0797702
1413393228955760384,-2.45189,-0.197342,-0.388497,-0.482431,0.467656,0.673879,0.307319,-0.198976,0.381446,-0.0152047,-0.000455942,0.0163936,0.0539101,-0.0780233,0.142709,-0.0819192
1413393229005760512,-2.4619,-0.177576,-0.391082,-0.480381,0.466869,0.674725,0.309862,-0.188465,0.409407,-0.00836087,-0.000502025,0.0163744,0.0539824,-0.0778435,0.140421,-0.0823021
1413393229055760384,-2.47201,-0.156607,-0.39514,-0.477765,0.463676,0.676597,0.314582,-0.203783,0.431163,-0.030997,-0.000613277,0.016327,0.0540418,-0.0770655,0.137899,-0.0832649
1413393229105760512,-2.48227,-0.135123,-0.408415,-0.477039,0.460783,0.67682,0.319417,-0.208155,0.439052,-0.0546391,-0.000619325,0.0163454,0.0540728,-0.0770307,0.138297,-0.0842296
1413393229155760384,-2.49286,-0.113227,-0.415236,-0.475798,0.457723,0.677672,0.323832,-0.211485,0.440361,-0.046164,-0.000595046,0.0163514,0.0541264,-0.0762076,0.137724,-0.0839796
1413393229205760512,-2.50419,-0.091347,-0.420221,-0.474943,0.454522,0.678659,0.327508,-0.236972,0.442466,-0.0764189,-0.000652205,0.0163617,0.0541998,-0.0759781,0.138361,-0.0856112
1413393229255760384,-2.51643,-0.0691604,-0.424463,-0.474534,0.451744,0.679475,0.33024,-0.252658,0.441241,-0.0930419,-0.000643887,0.0163574,0.054249,-0.0749505,0.13881,-0.0857937
1413393229305760512,-2.52932,-0.0470783,-0.428762,-0.474964,0.449522,0.679481,0.332633,-0.260639,0.439261,-0.106366,-0.000626437,0.0164004,0.0542844,-0.0742403,0.13951,-0.0853705
1413393229355760384,-2.54336,-0.0252369,-0.432781,-0.476295,0.447786,0.679088,0.333871,-0.295579,0.438586,-0.121,-0.000659084,0.0163945,0.054346,-0.0733127,0.139076,-0.0854274
1413393229405760512,-2.55835,-0.0035028,-0.442009,-0.478551,0.447095,0.678123,0.333534,-0.312653,0.433982,-0.136851,-0.000672041,0.0163139,0.0544158,-0.0711524,0.138342,-0.0857343
1413393229455760384,-2.57434,0.0179605,-0.449731,-0.482579,0.44808,0.675744,0.331229,-0.319626,0.426305,-0.134587,-0.000669004,0.0163066,0.0544576,-0.0702324,0.138227,-0.0856095
1413393229505760512,-2.59079,0.0391699,-0.455372,-0.486784,0.449567,0.673636,0.327331,-0.337722,0.418008,-0.136399,-0.000646436,0.0163234,0.0544938,-0.0692198,0.138473,-0.0851138
1413393229555760384,-2.60771,0.060036,-0.459503,-0.489219,0.452211,0.672106,0.323179,-0.338411,0.415612,-0.121735,-0.000623154,0.016323,0.0545445,-0.0685404,0.138579,-0.0851329
1413393229605760512,-2.62476,0.0808034,-0.465031,-0.491163,0.455036,0.671134,0.318245,-0.32222,0.41703,-0.109851,-0.000594471,0.0163213,0.0545928,-0.0675213,0.138627,-0.0850181
1413393229655760384,-2.6411,0.101525,-0.469053,-0.491317,0.457797,0.67151,0.313215,-0.32739,0.410035,-0.104531,-0.000568405,0.016326,0.0546271,-0.0658848,0.138692,-0.0840257
1413393229705760512,-2.65687,0.122298,-0.473363,-0.490033,0.459574,0.672768,0.309908,-0.309197,0.420212,-0.0889525,-0.000564854,0.0162924,0.0546848,-0.0635883,0.137987,-0.0831464
1413393229755760384,-2.67219,0.143398,-0.477402,-0.488429,0.460947,0.674324,0.307005,-0.305198,0.424317,-0.0675022,-0.000576421,0.0162196,0.0547318,-0.0610673,0.137127,-0.0824844
1413393229805760512,-2.68727,0.165066,-0.476516,-0.485607,0.46278,0.676485,0.303956,-0.298384,0.441231,-0.0488524,-0.000590913,0.0161899,0.0547732,-0.0591292,0.136874,-0.0823606
1413393229855760384,-2.69915,0.186562,-0.482181,-0.482582,0.463147,0.679802,0.300797,-0.289814,0.458563,-0.0258083,-0.000667515,0.0162078,0.0548359,-0.0580913,0.137854,-0.0829003
1413393229905760512,-2.71285,0.20971,-0.486553,-0.479938,0.463854,0.682254,0.298378,-0.287231,0.472063,-0.00713925,-0.000707943,0.016206,0.0548817,-0.0561973,0.138142,-0.0811703
1413393229955760384,-2.72678,0.234063,-0.490182,-0.478241,0.463309,0.684028,0.297888,-0.289746,0.503013,0.00662402,-0.00070504,0.0162218,0.054923,-0.0551022,0.139603,-0.0804736
1413393230005760512,-2.74081,0.259798,-0.49034,-0.476377,0.461218,0.685791,0.300054,-0.282432,0.529578,0.0551063,-0.000692099,0.0162488,0.0549772,-0.054019,0.140607,-0.0798281
1413393230055760384,-2.75518,0.286953,-0.489211,-0.47581,0.456468,0.687001,0.305405,-0.300887,0.550245,0.0564984,-0.000693972,0.0162088,0.0550148,-0.0517904,0.139812,-0.078281
1413393230105760512,-2.77019,0.314799,-0.485679,-0.475551,0.451979,0.68791,0.310396,-0.30406,0.564629,0.0452061,-0.00072714,0.0161962,0.0550662,-0.0516063,0.140394,-0.0801821
1413393230155760384,-2.78573,0.343356,-0.482791,-0.475884,0.448621,0.688194,0.314108,-0.319779,0.573924,0.040679,-0.000705609,0.0161835,0.0551126,-0.0507059,0.141217,-0.0797438
1413393230205760512,-2.80214,0.372171,-0.479264,-0.475672,0.44548,0.689048,0.317012,-0.342998,0.573096,0.0197938,-0.000695202,0.0161854,0.0551431,-0.0503561,0.141847,-0.0794416
1413393230255760384,-2.81974,0.401031,-0.475372,-0.477228,0.44314,0.688556,0.319017,-0.358903,0.579411,-0.0010948,-0.000730006,0.016152,0.0551758,-0.050062,0.141479,-0.0805514
1413393230305760512,-2.83828,0.429907,-0.46892,-0.479603,0.44145,0.687627,0.3198,-0.376594,0.577591,-0.00876506,-0.000743699,0.0161243,0.0552245,-0.0497688,0.141754,-0.081948
1413393230355760384,-2.85745,0.458559,-0.466999,-0.481374,0.442428,0.686824,0.317507,-0.386878,0.567982,-0.0455529,-0.000766911,0.0161282,0.055264,-0.0495678,0.142041,-0.0825456
1413393230405760512,-2.87717,0.487151,-0.465518,-0.483981,0.443324,0.685317,0.315543,-0.398415,0.56997,-0.0507466,-0.000795971,0.016116,0.0553118,-0.0495062,0.142583,-0.0833734
1413393230455760384,-2.89717,0.515917,-0.465851,-0.485201,0.44553,0.68388,0.313675,-0.40255,0.580524,-0.0466432,-0.000803151,0.0161101,0.055363,-0.049479,0.143038,-0.0837996
1413393230505760512,-2.91731,0.544908,-0.469707,-0.486242,0.449722,0.681214,0.311878,-0.403043,0.579427,-0.0252616,-0.000815191,0.0161054,0.055446,-0.0491211,0.143107,-0.0836586
1413393230555760384,-2.93796,0.574514,-0.466754,-0.486108,0.455481,0.677788,0.311193,-0.390066,0.582397,-0.0452239,-0.000802123,0.0161131,0.0554864,-0.0482197,0.143197,-0.0817885
1413393230605760512,-2.96293,0.605883,-0.471851,-0.484406,0.464391,0.671951,0.313327,-0.375249,0.60043,-0.0331115,-0.00054619,0.0161222,0.0554364,-0.0490423,0.143822,-0.0832171
1413393230655760384,-2.98555,0.637679,-0.464681,-0.482407,0.473761,0.666004,0.315075,-0.36821,0.610704,-0.0101924,-0.000392675,0.0161328,0.0554149,-0.0490202,0.144958,-0.0825317
1413393230705760512,-3.00809,0.669807,-0.473231,-0.479629,0.481809,0.660586,0.318502,-0.355634,0.643907,0.0412696,-0.000315405,0.0161471,0.0554642,-0.0491968,0.144954,-0.0821999
1413393230755760384,-3.02493,0.701481,-0.475645,-0.477234,0.489701,0.654978,0.321629,-0.332501,0.654023,0.052355,-0.000342468,0.0161165,0.0555381,-0.049151,0.144596,-0.0815137
1413393230805760512,-3.04076,0.733719,-0.471313,-0.474519,0.497529,0.649187,0.325352,-0.322432,0.66705,0.0673673,-0.000374114,0.0161081,0.0555559,-0.0490567,0.144953,-0.0812634
1413393230855760384,-3.05563,0.766938,-0.465869,-0.470319,0.505065,0.643724,0.33065,-0.293249,0.689103,0.0791694,-0.000439611,0.0161018,0.0556383,-0.0490102,0.145502,-0.0810735
1413393230905760512,-3.06983,0.801406,-0.4616,-0.465053,0.512578,0.637955,0.337644,-0.281545,0.701908,0.109499,-0.000460538,0.0160786,0.0556825,-0.0490602,0.145692,-0.0808043
1413393230955760384,-3.08329,0.836523,-0.456614,-0.458238,0.518508,0.633423,0.346327,-0.265566,0.710652,0.12437,-0.000497874,0.0160801,0.0557214,-0.0493053,0.146063,-0.0806653
1413393231005760512,-3.09619,0.872248,-0.454347,-0.450773,0.523114,0.629707,0.355844,-0.252369,0.719033,0.137566,-0.000518919,0.0160774,0.055724,-0.0498549,0.146718,-0.0807793
1413393231055760384,-3.10879,0.909217,-0.413719,-0.443117,0.526433,0.627157,0.364952,-0.25706,0.735023,0.126858,-0.000414861,0.0161957,0.0557779,-0.0494144,0.148979,-0.0769121
1413393231105760512,-3.12198,0.946031,-0.400291,-0.437167,0.528778,0.624542,0.37313,-0.278677,0.734838,0.125284,-0.000426666,0.0161957,0.0558374,-0.0490177,0.149029,-0.0757705
1413393231155760384,-3.13596,0.983024,-0.391184,-0.432166,0.530886,0.622203,0.37981,-0.290365,0.739471,0.13841,-0.000436221,0.0162018,0.0558556,-0.0492656,0.149837,-0.0750092
1413393231205760512,-3.15127,1.01993,-0.389188,-0.428549,0.53391,0.61967,0.38379,-0.307561,0.747734,0.137167,-0.000507809,0.0161972,0.0558659,-0.0502203,0.149793,-0.0761005
1413393231255760384,-3.16781,1.05721,-0.376976,-0.425284,0.535824,0.617787,0.387771,-0.343739,0.745898,0.130208,-0.000614996,0.0161819,0.055862,-0.0516516,0.149202,-0.0773806
1413393231305760512,-3.18554,1.09433,-0.357706,-0.424573,0.538508,0.614899,0.389418,-0.355969,0.73908,0.0831057,-0.000693588,0.0162029,0.0558573,-0.0528497,0.147578,-0.0771906
1413393231355760384,-3.20523,1.13404,-0.34962,-0.423803,0.543765,0.609686,0.391143,-0.367326,0.74292,0.0326294,-0.000479059,0.0162035,0.0557876,-0.0539833,0.143823,-0.0791491
1413393231405760512,-3.22065,1.16937,-0.34198,-0.4267,0.546119,0.6065,0.389666,-0.387249,0.747796,-0.00574258,-0.000547882,0.0162042,0.0558062,-0.0542329,0.145296,-0.0787245
1413393231455760384,-3.24002,1.20683,-0.344585,-0.431357,0.548582,0.601295,0.389146,-0.382236,0.750482,-0.0387259,-0.000556712,0.0162014,0.0557918,-0.0544804,0.145711,-0.0780367
1413393231505760512,-3.25929,1.24422,-0.350645,-0.438123,0.549707,0.595132,0.389471,-0.388793,0.739203,-0.0832241,-0.000559892,0.0161965,0.0557886,-0.0549607,0.146267,-0.0772331
1413393231555760384,-3.27867,1.28143,-0.349318,-0.446454,0.548759,0.588557,0.391335,-0.388563,0.729605,-0.13168,-0.000548432,0.0162422,0.0558464,-0.054929,0.147621,-0.0756062
1413393231605760512,-3.29704,1.31832,-0.321218,-0.454022,0.547805,0.58239,0.393186,-0.358562,0.707449,-0.162519,-0.000291291,0.0163702,0.0559455,-0.0537183,0.150806,-0.0701421
1413393231655760384,-3.3145,1.35344,-0.3155,-0.458856,0.547768,0.577508,0.394824,-0.349623,0.677976,-0.178551,-0.000114115,0.0165476,0.0560274,-0.0543152,0.152835,-0.066337
1413393231705760512,-3.33087,1.38707,-0.311901,-0.459997,0.548457,0.574819,0.396459,-0.318884,0.649807,-0.178996,4.31952e-05,0.016799,0.0560997,-0.055632,0.154264,-0.0624686
1413393231755760384,-3.34592,1.41894,-0.316954,-0.458297,0.551527,0.5727,0.397237,-0.283484,0.622281,-0.166398,9.74817e-05,0.0168273,0.056183,-0.0557078,0.154439,-0.0602135
1413393231805760512,-3.3602,1.44922,-0.324953,-0.455618,0.555891,0.570923,0.396792,-0.276115,0.584397,-0.158663,9.43716e-05,0.0168706,0.0562295,-0.0574873,0.152633,-0.059293
1413393231855760384,-3.37357,1.47789,-0.329657,-0.453332,0.562054,0.568239,0.394576,-0.239964,0.55556,-0.146496,6.76841e-05,0.0169588,0.0562676,-0.0601824,0.149693,-0.0589243
1413393231905760512,-3.38584,1.5056,-0.314414,-0.44897,0.570202,0.565387,0.391962,-0.201487,0.537258,-0.120643,9.80853e-05,0.0171958,0.0562145,-0.0663522,0.147757,-0.0631209
1413393231955760384,-3.39562,1.53212,-0.318108,-0.445398,0.578107,0.561483,0.390064,-0.175785,0.531678,-0.10413,0.000118298,0.0174603,0.0562083,-0.0713226,0.148268,-0.0655207
1413393232005760512,-3.40362,1.55812,-0.328853,-0.441337,0.585823,0.557013,0.389576,-0.126369,0.512898,-0.0941555,2.44063e-05,0.017483,0.0564155,-0.0731693,0.143989,-0.0642649
1413393232055760384,-3.4086,1.58415,-0.332132,-0.435177,0.592443,0.553457,0.391558,-0.081718,0.519095,-0.0547015,-5.07667e-05,0.0175826,0.056612,-0.072378,0.142581,-0.0596216
1413393232105760512,-3.412,1.61002,-0.340475,-0.428855,0.598509,0.549414,0.394987,-0.0464759,0.503036,-0.0295554,-0.000123674,0.017595,0.05686,-0.0706065,0.138317,-0.0540158
1413393232155760384,-3.41336,1.63509,-0.343922,-0.422494,0.604395,0.54471,0.399371,-0.00384791,0.494484,-0.0325716,-0.000157537,0.0177,0.0568688,-0.071732,0.138257,-0.053032
1413393232205760512,-3.41275,1.65988,-0.344304,-0.41582,0.608411,0.539774,0.406908,0.0260912,0.497606,-0.0252814,-0.000162968,0.0177004,0.05687,-0.0732911,0.13873,-0.0524841
1413393232255760384,-3.4109,1.68471,-0.346902,-0.409707,0.613225,0.534018,0.413425,0.0484282,0.493957,-0.0587668,-0.000162759,0.0177004,0.0568704,-0.0749477,0.139098,-0.0520749
1413393232305760512,-3.40764,1.70933,-0.350562,-0.403901,0.61815,0.527831,0.419701,0.0797946,0.490257,-0.0912189,-0.000165238,0.0177005,0.0568712,-0.0765871,0.139543,-0.0515566
1413393232355760384,-3.40318,1.73395,-0.355784,-0.39902,0.62451,0.520353,0.424268,0.0962249,0.491507,-0.126609,-0.000165933,0.0177006,0.0568715,-0.0782312,0.139971,-0.0510261
1413393232405760512,-3.39763,1.75846,-0.362634,-0.393063,0.631059,0.514164,0.42767,0.122362,0.491064,-0.142559,-0.000166805,0.0177007,0.0568719,-0.0798654,0.140406,-0.0504797
1413393232455760384,-3.39154,1.78318,-0.372154,-0.387095,0.637266,0.507716,0.431595,0.145039,0.487079,-0.182577,-0.000216828,0.0177214,0.0569915,-0.0798903,0.136392,-0.0482005
1413393232505760512,-3.38442,1.808,-0.389172,-0.381759,0.6436,0.50118,0.434577,0.160929,0.493791,-0.217384,-0.000263714,0.0177102,0.0571453,-0.0794686,0.132139,-0.0453037
1413393232555760384,-3.37635,1.83295,-0.402889,-0.377473,0.648686,0.495357,0.437426,0.177942,0.500131,-0.2537,-0.000296867,0.0177024,0.0571802,-0.0794684,0.129338,-0.0445476
1413393232605760512,-3.36758,1.85803,-0.417518,-0.373812,0.652371,0.490963,0.440037,0.188874,0.496744,-0.284578,-0.000325273,0.0176847,0.0572557,-0.0797607,0.127034,-0.0437182
1413393232655760384,-3.35788,1.88287,-0.43317,-0.371429,0.655862,0.486248,0.442096,0.219101,0.496575,-0.263343,-0.000372666,0.0176753,0.0572878,-0.0799912,0.124991,-0.0436516
1413393232705760512,-3.34685,1.9078,-0.445719,-0.369528,0.65819,0.482515,0.444313,0.226523,0.500975,-0.254464,-0.000373557,0.0176926,0.0574136,-0.0802769,0.124002,-0.0422768
1413393232755760384,-3.33474,1.93262,-0.457496,-0.36675,0.659472,0.480711,0.446663,0.249965,0.496028,-0.230298,-0.000360404,0.0177482,0.0574619,-0.0812885,0.124398,-0.0415939
1413393232805760512,-3.32153,1.95747,-0.468927,-0.364376,0.660914,0.479166,0.448133,0.281145,0.505599,-0.224555,-0.000374558,0.0177981,0.0574699,-0.0821156,0.12461,-0.0409652
1413393232855760384,-3.30728,1.98309,-0.479525,-0.363316,0.661586,0.477557,0.449717,0.288715,0.516138,-0.214016,-0.000387284,0.0178561,0.0574788,-0.0828539,0.124789,-0.0403367
1413393232905760512,-3.29221,2.00856,-0.490174,-0.36094,0.662417,0.477825,0.450121,0.312348,0.511312,-0.201552,-0.000412113,0.0179103,0.0574774,-0.0834643,0.12472,-0.039585
1413393232955760384,-3.27616,2.03426,-0.498996,-0.356927,0.661478,0.479656,0.452747,0.333429,0.510965,-0.155022,-0.000392316,0.0179054,0.0575295,-0.0829409,0.122962,-0.0378314
1413393233005760512,-3.2596,2.06051,-0.505606,-0.353416,0.660906,0.481655,0.454212,0.340412,0.525133,-0.12121,-0.000331336,0.0177804,0.0576246,-0.0807362,0.118368,-0.0346523
1413393233055760384,-3.24264,2.08727,-0.507788,-0.349939,0.659788,0.484199,0.455822,0.349057,0.534707,-0.0803821,-0.000307897,0.0175331,0.057676,-0.0760859,0.112907,-0.0314925
1413393233105760512,-3.22514,2.11414,-0.508909,-0.346927,0.659567,0.486296,0.456211,0.364442,0.530411,-0.0460271,-0.000365392,0.0173562,0.0575643,-0.0735474,0.110091,-0.0306622
1413393233155760384,-3.20684,2.14114,-0.510879,-0.345658,0.658782,0.48755,0.456971,0.362485,0.545406,-0.00272882,-0.000400451,0.017369,0.057563,-0.0729124,0.11182,-0.0312752
1413393233205760512,-3.18825,2.16883,-0.510025,-0.344566,0.657403,0.488502,0.458761,0.366635,0.56413,0.0500189,-0.000387359,0.0174521,0.0576231,-0.0736347,0.113825,-0.0312592
1413393233255760384,-3.16913,2.19693,-0.506571,-0.34407,0.65579,0.486903,0.463122,0.383033,0.559206,0.0913486,-0.000388652,0.0175214,0.0576713,-0.0741192,0.116142,-0.0317099
1413393233305760512,-3.14992,2.22525,-0.500953,-0.343392,0.654466,0.484715,0.467769,0.375041,0.573455,0.137294,-0.000356608,0.0175787,0.0577364,-0.0742796,0.117501,-0.0311146
1413393233355760384,-3.13107,2.25388,-0.49268,-0.343158,0.653147,0.480888,0.473696,0.379067,0.573763,0.192703,-0.000360274,0.0175788,0.0577546,-0.0739146,0.116687,-0.0301346
1413393233405760512,-3.11252,2.28234,-0.482252,-0.343073,0.65297,0.475228,0.479677,0.375164,0.559172,0.203798,-0.000340863,0.0176393,0.0578321,-0.0745043,0.113889,-0.0286188
1413393233455760384,-3.09463,2.31043,-0.470785,-0.344155,0.654999,0.467068,0.48413,0.363891,0.55636,0.253851,-0.000324692,0.0176142,0.0578607,-0.0736884,0.110043,-0.027527
1413393233505760512,-3.07695,2.3378,-0.452331,-0.340829,0.656956,0.46145,0.489192,0.354991,0.527493,0.298491,-0.000334181,0.0175932,0.0578541,-0.0731334,0.107577,-0.027481
1413393233555760384,-3.05947,2.36385,-0.436466,-0.337853,0.661186,0.454481,0.492073,0.3516,0.506407,0.305311,-0.000324122,0.0176013,0.0579179,-0.0725341,0.106271,-0.0269967
1413393233605760512,-3.04218,2.38931,-0.419809,-0.330795,0.665863,0.449352,0.495262,0.345471,0.508535,0.353495,-0.000317147,0.0175759,0.0579422,-0.071637,0.104652,-0.0266793
1413393233655760384,-3.02545,2.41391,-0.405451,-0.322964,0.672311,0.443859,0.496671,0.337363,0.497538,0.387715,-0.000302851,0.0175928,0.0580231,-0.0701958,0.102433,-0.0249416
1413393233705760512,-3.00872,2.43781,-0.371739,-0.31476,0.679699,0.437734,0.497318,0.324683,0.486051,0.421406,-0.000305461,0.0176122,0.0580283,-0.0700982,0.106937,-0.0266462
1413393233755760384,-2.99246,2.46213,-0.345109,-0.306742,0.683894,0.431246,0.502221,0.313696,0.486168,0.482153,-0.000314288,0.0176331,0.0580987,-0.0694368,0.108588,-0.0256394
1413393233805760512,-2.97695,2.4857,-0.321114,-0.302436,0.687633,0.423227,0.50653,0.292201,0.466101,0.502911,-0.00032751,0.0176675,0.0581273,-0.0686887,0.11186,-0.0254449
1413393233855760384,-2.96212,2.50877,-0.296688,-0.299558,0.687974,0.415328,0.514255,0.266775,0.469901,0.49069,-0.000339762,0.0176685,0.058139,-0.0681194,0.11773,-0.0267096
1413393233905760512,-2.94857,2.53153,-0.272334,-0.299739,0.690039,0.406828,0.518163,0.251958,0.456939,0.488368,-0.00036716,0.017659,0.0581556,-0.067751,0.121785,-0.0274343
1413393233955760384,-2.9359,2.55347,-0.247557,-0.297819,0.69198,0.39855,0.523093,0.248256,0.429798,0.481348,-0.000409035,0.0176616,0.0581624,-0.067525,0.124266,-0.0288432
1413393234005760512,-2.92371,2.57433,-0.227797,-0.296518,0.696689,0.390109,0.523944,0.222539,0.419158,0.486843,-0.000429476,0.0176729,0.0581632,-0.066939,0.127743,-0.0294765
1413393234055760384,-2.91196,2.5941,-0.217538,-0.294892,0.70232,0.381482,0.523696,0.212099,0.394797,0.475619,-0.000443985,0.0176796,0.0581942,-0.0660031,0.131528,-0.0293225
1413393234105760512,-2.90027,2.61237,-0.225082,-0.291283,0.708677,0.373617,0.522821,0.211195,0.366033,0.460546,-0.000468605,0.0176843,0.0582303,-0.0649214,0.135982,-0.0293739
1413393234155760384,-2.88946,2.63004,-0.222652,-0.287111,0.714877,0.36663,0.521633,0.202087,0.351058,0.414705,-0.00048914,0.0177011,0.0582402,-0.0637608,0.137656,-0.0292494
1413393234205760512,-2.87927,2.64746,-0.198455,-0.28549,0.719464,0.35924,0.521357,0.2058,0.332527,0.382568,-0.000509383,0.0177137,0.0582737,-0.062477,0.137457,-0.0289084
1413393234255760384,-2.86876,2.66346,-0.181177,-0.288211,0.721364,0.348476,0.524531,0.217445,0.309427,0.339227,-0.000534673,0.0177187,0.0583059,-0.0608334,0.138103,-0.0278586
1413393234305760512,-2.8986,2.66142,0.172253,-0.306945,0.717715,0.348105,0.519127,0.204937,0.292286,0.296693,-0.00171625,0.0175559,0.0583632,-0.0456815,0.217332,0.00948063
1413393234355760384,-2.88903,2.67389,0.175116,-0.313774,0.718594,0.334651,0.522663,0.217043,0.248368,0.270742,-0.00171877,0.0175817,0.0583886,-0.0431592,0.215305,0.0137445
1413393234405760512,-2.87522,2.68555,0.200815,-0.320279,0.719059,0.322012,0.526008,0.237585,0.191987,0.218008,-0.00181039,0.017583,0.0584347,-0.0406998,0.225744,0.0182195
1413393234455760384,-2.86583,2.69439,0.231169,-0.323367,0.720536,0.30955,0.529566,0.243039,0.135724,0.186819,-0.00175933,0.0176138,0.058475,-0.0393682,0.214196,0.0181932
1413393234505760512,-2.8546,2.70064,0.253882,-0.32253,0.722061,0.300221,0.533357,0.260168,0.0546906,0.151607,-0.00174258,0.0176266,0.0585149,-0.0379737,0.209324,0.0191979
1413393234555760384,-2.84133,2.70219,0.270888,-0.317536,0.723735,0.293217,0.537962,0.285356,-0.0396261,0.198768,-0.0017492,0.0176918,0.0585652,-0.0361019,0.205049,0.0220333
1413393234605760512,-2.8266,2.69769,0.277603,-0.305133,0.72432,0.291151,0.545422,0.308865,-0.107432,0.203217,-0.00176,0.0176624,0.0585307,-0.0365869,0.209019,0.0164204
1413393234655760384,-2.81026,2.69064,0.290827,-0.285287,0.724145,0.293533,0.555035,0.312714,-0.190363,0.276075,-0.00175475,0.017668,0.0586044,-0.0343087,0.208733,0.0186839
1413393234705760512,-2.79541,2.67902,0.308693,-0.262231,0.725112,0.297678,0.562882,0.286456,-0.272328,0.425811,-0.00176375,0.0176906,0.0586485,-0.0326774,0.2083,0.0195751
1413393234755760384,-2.78206,2.66446,0.331251,-0.241871,0.728339,0.29964,0.566778,0.251217,-0.31305,0.450133,-0.00177211,0.0177222,0.0586699,-0.0305126,0.206389,0.0242516
1413393234805760512,-2.77016,2.64842,0.354284,-0.221722,0.733319,0.301189,0.567774,0.217206,-0.3268,0.447472,-0.00177242,0.0177306,0.0586916,-0.0292417,0.206524,0.0255129
1413393234855760384,-2.76034,2.63221,0.375853,-0.207007,0.740404,0.29876,0.565413,0.189628,-0.331381,0.376526,-0.00178871,0.0177779,0.0587276,-0.0277666,0.20216,0.0301007
1413393234905760512,-2.7521,2.61659,0.395949,-0.198767,0.748139,0.291899,0.561761,0.16636,-0.32572,0.289059,-0.00177672,0.017833,0.0587722,-0.0260223,0.19517,0.0346026
1413393234955760384,-2.7451,2.60162,0.414066,-0.193189,0.755111,0.283093,0.558877,0.141632,-0.315166,0.185038,-0.00177294,0.0178902,0.0588058,-0.0245044,0.18692,0.0405952
1413393235005760512,-2.73867,2.58628,0.421476,-0.191535,0.762192,0.270997,0.555823,0.12497,-0.30774,0.0832597,-0.00177478,0.0179076,0.0588232,-0.0238786,0.184013,0.0423156
1413393235055760384,-2.73313,2.57133,0.424081,-0.190925,0.768179,0.25778,0.554075,0.120871,-0.302586,-0.017485,-0.00177266,0.0179711,0.058852,-0.0238785,0.177595,0.0461055
1413393235105760512,-2.72755,2.5562,0.420637,-0.189302,0.773422,0.244566,0.553328,0.120252,-0.304859,-0.11024,-0.00176556,0.018007,0.0588854,-0.023393,0.17387,0.0480498
1413393235155760384,-2.72163,2.54089,0.413598,-0.185411,0.778436,0.232807,0.552686,0.128248,-0.306224,-0.18524,-0.00176397,0.0180235,0.0589133,-0.022849,0.173104,0.0497229
1413393235205760512,-2.71522,2.52556,0.403749,-0.177016,0.781555,0.22405,0.554653,0.130892,-0.309819,-0.204696,-0.00175039,0.0180428,0.0589606,-0.0230407,0.172231,0.0500352
1413393235255760384,-2.70853,2.50987,0.393156,-0.164995,0.785136,0.21815,0.555652,0.131875,-0.312391,-0.222374,-0.00173617,0.0180775,0.0589914,-0.022636,0.172408,0.0512495
1413393235305760512,-2.70199,2.49442,0.382441,-0.151084,0.788112,0.214075,0.556978,0.131707,-0.303383,-0.200631,-0.00172025,0.0180775,0.0590465,-0.0237323,0.173318,0.049777
1413393235355760384,-2.6955,2.47976,0.372843,-0.139393,0.791679,0.210465,0.556344,0.127957,-0.282515,-0.192259,-0.00170546,0.0181029,0.0590766,-0.0236518,0.173349,0.0502982
1413393235405760512,-2.68932,2.46641,0.363366,-0.128524,0.795329,0.208371,0.55454,0.124687,-0.252679,-0.171264,-0.00169588,0.0181233,0.0591267,-0.0237885,0.172937,0.048876
1413393235455760384,-2.68306,2.45489,0.358009,-0.120233,0.798325,0.20567,0.553102,0.135991,-0.21854,-0.152706,-0.00168777,0.0181354,0.0591529,-0.0239265,0.171411,0.0479076
1413393235505760512,-2.67644,2.44529,0.353353,-0.112219,0.801313,0.204611,0.550852,0.145866,-0.181154,-0.120557,-0.00165734,0.0181598,0.059202,-0.0236577,0.1694,0.0480212
1413393235555760384,-2.66945,2.43791,0.348902,-0.102548,0.80056,0.204318,0.553933,0.157295,-0.132295,-0.0790799,-0.00164005,0.0181505,0.0592312,-0.0242207,0.167893,0.0463529
1413393235605760512,-2.66288,2.43355,0.342971,-0.0906065,0.798151,0.20612,0.558803,0.151685,-0.0834333,-0.098709,-0.00160235,0.0181609,0.0592582,-0.0250488,0.166359,0.0453954
1413393235655760384,-2.65696,2.43257,0.3401,-0.081837,0.796142,0.205116,0.563373,0.14855,-0.0254147,-0.0796933,-0.00156813,0.0181745,0.0592663,-0.0256121,0.164699,0.0442848
1413393235705760512,-2.65144,2.43446,0.335638,-0.0765776,0.793584,0.203367,0.568333,0.130355,0.0441979,-0.083281,-0.0015414,0.0181778,0.059294,-0.0266027,0.163588,0.0427275
1413393235755760384,-2.64591,2.43691,0.328941,-0.0760416,0.792604,0.199916,0.570991,0.112299,0.108818,-0.0744516,-0.00156437,0.0181874,0.0593333,-0.0280219,0.163919,0.0404983
1413393235805760512,-2.63489,2.44106,0.318535,-0.0803954,0.791782,0.196508,0.572715,0.0873726,0.172197,-0.0685328,-0.0016675,0.0181878,0.0593904,-0.0294405,0.164101,0.0385372
1413393235855760384,-2.64759,2.45803,0.365258,-0.0790128,0.794867,0.173042,0.576194,0.0809016,0.211674,-0.0720073,-0.000635749,0.0181563,0.0592029,-0.0340595,0.156934,0.0277585
1413393235905760512,-2.64732,2.47586,0.361922,-0.094829,0.794101,0.16881,0.57612,0.0586602,0.237489,-0.0751011,-0.00109208,0.0182129,0.0593332,-0.0330986,0.155028,0.0346682
1413393235955760384,-2.62898,2.47578,0.282846,-0.111954,0.793197,0.166781,0.574882,0.0423344,0.255509,-0.062381,-0.00171683,0.0182147,0.0594886,-0.0330587,0.15904,0.0416867
1413393236005760512,-2.64608,2.50411,0.327876,-0.11247,0.794428,0.150292,0.577623,0.0365953,0.24324,-0.0350806,-0.00124923,0.018263,0.0593918,-0.03471,0.14801,0.0431121
1413393236055760384,-2.62596,2.50215,0.263672,-0.126574,0.792968,0.151532,0.576384,0.0315329,0.233192,-0.0308228,-0.00207898,0.0182706,0.0596018,-0.0338502,0.155915,0.049934
1413393236105760512,-2.6265,2.52154,0.257208,-0.13103,0.7936,0.145693,0.576024,0.0499164,0.222127,0.0120839,-0.00236266,0.0182909,0.0596475,-0.0332105,0.158698,0.0550573
1413393236155760384,-2.62436,2.55167,0.298049,-0.131494,0.794791,0.137486,0.576293,0.0251475,0.168148,0.0218981,-0.00248369,0.0182633,0.0596892,-0.0335697,0.166328,0.0559571
1413393236205760512,-2.63992,2.5618,0.339924,-0.112435,0.799356,0.116622,0.578609,0.0157776,0.13284,0.0551804,-0.0014968,0.018348,0.0595185,-0.0375384,0.142229,0.0487828
1413393236255760384,-2.63615,2.56328,0.333266,-0.103677,0.801567,0.114264,0.577656,-0.0145779,0.116529,0.0924352,-0.00167168,0.0183316,0.0596163,-0.0391617,0.148302,0.0474403
1413393236305760512,-2.63692,2.56801,0.339232,-0.0898692,0.803826,0.109732,0.577707,-0.00143827,0.0869622,0.0773266,-0.00165601,0.0183373,0.0596414,-0.0400172,0.149702,0.0482955
1413393236355760384,-2.63684,2.57255,0.343182,-0.0781714,0.805616,0.103039,0.578148,0.000277969,0.0888115,0.111682,-0.00165807,0.0183446,0.0596829,-0.0414679,0.151626,0.0485598
1413393236405760512,-2.6369,2.57737,0.348347,-0.069945,0.807876,0.0948313,0.577452,0.00231006,0.104096,0.11059,-0.00165176,0.0183566,0.0597284,-0.0430079,0.152952,0.0488479
1413393236455760384,-2.63688,2.58227,0.354406,-0.0631103,0.8095,0.0853294,0.577448,-0.00103601,0.0988949,0.0979086,-0.00164837,0.0183674,0.0597632,-0.043536,0.152182,0.0498277
1413393236505760512,-2.63664,2.58728,0.359583,-0.0575377,0.812866,0.0748283,0.574752,0.0069535,0.0970142,0.0980715,-0.00163627,0.0183758,0.0597884,-0.0445843,0.153208,0.050743
1413393236555760384,-2.63605,2.59243,0.363759,-0.0514796,0.816905,0.0648508,0.570798,0.0193656,0.104241,0.104937,-0.00165287,0.0183996,0.0598301,-0.0461998,0.153707,0.0511394
1413393236605760512,-2.63485,2.59783,0.368625,-0.0457238,0.822329,0.0547464,0.564524,0.035093,0.111393,0.106404,-0.00166823,0.0184041,0.0598593,-0.04739,0.15376,0.0521222
1413393236655760384,-2.63263,2.6035,0.372732,-0.0409089,0.826892,0.0446595,0.55909,0.0627676,0.116606,0.0553879,-0.00166623,0.0184208,0.059876,-0.0483488,0.15354,0.0535853
1413393236705760512,-2.62925,2.60951,0.374321,-0.0379784,0.82927,0.0354927,0.556425,0.0729921,0.123266,0.000641139,-0.00168379,0.018423,0.0599028,-0.0493925,0.154292,0.0549313
1413393236755760384,-2.62525,2.61593,0.378058,-0.0373766,0.830128,0.0250921,0.555753,0.100789,0.119083,-0.0456544,-0.00167194,0.0184438,0.0599234,-0.0495133,0.154607,0.0573486
1413393236805760512,-2.62029,2.62173,0.374367,-0.0382354,0.829409,0.0133236,0.557173,0.124979,0.114073,-0.0898635,-0.0016285,0.0184426,0.0599224,-0.0502261,0.154472,0.0586298
1413393236855760384,-2.63465,2.64315,0.448745,-0.0230094,0.827552,-0.014078,0.560741,0.165637,0.0966503,-0.0789412,-0.000368686,0.0185087,0.0596879,-0.0532506,0.130526,0.054461
1413393236905760512,-2.62348,2.64882,0.450861,-0.0275989,0.825807,-0.0111717,0.563166,0.186198,0.0763877,-0.0088553,-0.000947146,0.0184768,0.0598739,-0.05538,0.14038,0.0528714
1413393236955760384,-2.61322,2.65111,0.44718,-0.024072,0.822701,-0.0137982,0.567797,0.21521,0.0467239,0.0343807,-0.000968232,0.0184983,0.0599035,-0.0564768,0.142802,0.053915
1413393237005760512,-2.60191,2.65289,0.451315,-0.019063,0.819766,-0.0139085,0.572213,0.229339,0.0336933,0.126282,-0.000974762,0.0185356,0.0599456,-0.0573995,0.143817,0.0563316
1413393237055760384,-2.5915,2.65432,0.485418,-0.0139808,0.817705,-0.0130987,0.575319,0.223325,0.00976334,0.196265,-0.000959971,0.0185373,0.0599826,-0.0577529,0.145024,0.0584058
1413393237105760512,-2.5654,2.64576,0.430388,-0.0149634,0.817359,-0.00197373,0.575931,0.229078,0.00822932,0.268577,-0.00163667,0.0184132,0.0598781,-0.0430734,0.199065,0.103361
1413393237155760384,-2.5459,2.64129,0.542967,-0.00727031,0.814786,0.00276491,0.57971,0.233095,0.0192775,0.252639,-0.00165094,0.0183489,0.0598851,-0.0412848,0.210888,0.107918
1413393237205760512,-2.53394,2.6424,0.554401,0.000122193,0.812894,0.00871776,0.582347,0.229141,0.0353103,0.207607,-0.00165718,0.0183573,0.0599021,-0.0418913,0.210571,0.111417
1413393237255760384,-2.52241,2.64433,0.559897,0.00533778,0.8115,0.0127838,0.584189,0.237087,0.0440914,0.136893,-0.00166124,0.0183837,0.0599495,-0.0427062,0.209402,0.113953
1413393237305760512,-2.51081,2.6473,0.563658,0.00944267,0.811667,0.0163222,0.583816,0.225484,0.0750695,0.0800032,-0.00165552,0.0183972,0.059988,-0.0430465,0.209429,0.11574
1413393237355760384,-2.49989,2.65185,0.565592,0.0118935,0.811931,0.0195313,0.583306,0.212341,0.109087,0.00688166,-0.0016365,0.0184,0.0600119,-0.04334,0.209375,0.117574
1413393237405760512,-2.48952,2.6579,0.564064,0.0126344,0.811217,0.0211299,0.584227,0.203567,0.130244,-0.0637318,-0.00164175,0.0184266,0.0600609,-0.0441459,0.209166,0.118398
1413393237455760384,-2.47929,2.66559,0.559058,0.00968648,0.810811,0.0209026,0.584854,0.194168,0.172767,-0.0941974,-0.00164588,0.0184197,0.0601239,-0.0447154,0.210227,0.118725
1413393237505760512,-2.46956,2.67491,0.553029,0.00293448,0.810405,0.0184346,0.585573,0.190527,0.199717,-0.110323,-0.00164806,0.0184297,0.0601445,-0.0448849,0.21048,0.120305
1413393237555760384,-2.46042,2.6853,0.546908,-0.00597352,0.81077,0.0142909,0.585161,0.176245,0.215106,-0.100675,-0.00164238,0.0184433,0.0601637,-0.0446725,0.210327,0.120539
1413393237605760512,-2.45164,2.69629,0.542536,-0.0151491,0.810531,0.00986805,0.585417,0.16759,0.220174,-0.0969647,-0.00163036,0.0184342,0.0601856,-0.0442158,0.209945,0.122126
1413393237655760384,-2.44346,2.70728,0.538059,-0.0241815,0.811881,0.00538811,0.583297,0.159735,0.213199,-0.0832507,-0.00162147,0.0184395,0.060191,-0.04407,0.209434,0.123377
1413393237705760512,-2.43543,2.71779,0.534538,-0.0315019,0.812435,0.00212663,0.582196,0.156193,0.199134,-0.090622,-0.00162347,0.0184456,0.0602156,-0.0437341,0.209149,0.124785
1413393237755760384,-2.42767,2.72733,0.529657,-0.0365137,0.813385,0.000584831,0.580579,0.149945,0.17735,-0.0769866,-0.00162886,0.0184415,0.060241,-0.0438764,0.208435,0.126913
1413393237805760512,-2.41996,2.73555,0.525595,-0.0396289,0.814282,0.000124469,0.579115,0.160089,0.151503,-0.0507744,-0.00163982,0.0184639,0.0602772,-0.0444127,0.208355,0.128057
1413393237855760384,-2.41191,2.74247,0.522873,-0.0396382,0.815838,0.00162566,0.576918,0.170307,0.127427,-0.057483,-0.00164026,0.0184695,0.060281,-0.0446801,0.208643,0.130201
1413393237905760512,-2.40321,2.74811,0.520645,-0.0377404,0.817843,0.00431489,0.574186,0.171019,0.10085,-0.0329744,-0.00163283,0.0184747,0.0603198,-0.0444174,0.209353,0.131679
1413393237955760384,-2.39448,2.75261,0.518592,-0.0355228,0.819085,0.00648382,0.572535,0.169765,0.0737164,-0.044157,-0.00162743,0.0184497,0.0603173,-0.0431792,0.210357,0.133002
1413393238005760512,-2.38571,2.75595,0.516029,-0.0282862,0.822139,0.0119875,0.568458,0.175042,0.0587398,-0.0473454,-0.00161597,0.0184586,0.0603561,-0.0432109,0.211436,0.134051
1413393238055760384,-2.37619,2.75881,0.513933,-0.0214954,0.824414,0.0173188,0.565314,0.195469,0.0607191,-0.0291079,-0.00162788,0.018418,0.0603717,-0.0424242,0.211957,0.134802
1413393238105760512,-2.36616,2.76148,0.510709,-0.0164515,0.826676,0.0208965,0.562049,0.212232,0.0576347,-0.0245081,-0.00162934,0.018444,0.0604043,-0.0432022,0.212278,0.136555
1413393238155760384,-2.35525,2.7641,0.508559,-0.0114298,0.827187,0.0233251,0.561326,0.223143,0.056317,0.00436893,-0.00164304,0.0184136,0.0604291,-0.0425597,0.21268,0.137687
1413393238205760512,-2.34309,2.76656,0.504186,-0.00782479,0.827844,0.0252013,0.560337,0.247494,0.0825399,0.0166993,-0.00167275,0.0183925,0.0604387,-0.0424473,0.214638,0.139467
1413393238255760384,-2.31257,2.74595,0.581725,-0.0192903,0.828657,0.039819,0.558006,0.240803,0.109439,0.0698691,-0.00274237,0.0181028,0.0605208,-0.027804,0.300436,0.176309
1413393238305760512,-2.29868,2.75185,0.59238,-0.0167763,0.829188,0.0391279,0.557346,0.275905,0.126553,0.131712,-0.0027567,0.0181342,0.0605585,-0.0258428,0.302194,0.179279
1413393238355760384,-2.28411,2.75938,0.598082,-0.0159634,0.829708,0.037902,0.556681,0.309918,0.166175,0.163105,-0.00277522,0.018127,0.060574,-0.0236831,0.301872,0.180743
1413393238405760512,-2.26759,2.76812,0.604292,-0.0158287,0.829365,0.0361031,0.557314,0.354115,0.190597,0.229534,-0.00280342,0.0181263,0.0605706,-0.0206609,0.301378,0.182479
1413393238455760384,-2.24982,2.77809,0.612161,-0.0186975,0.828275,0.0321138,0.559089,0.370722,0.2132,0.259239,-0.00280756,0.0181416,0.0606249,-0.0183676,0.301664,0.182512
1413393238505760512,-2.23103,2.7891,0.622648,-0.0249127,0.827483,0.0257388,0.560347,0.381863,0.229024,0.230796,-0.00281984,0.0181166,0.060623,-0.0161735,0.302049,0.183332
1413393238555760384,-2.21173,2.80063,0.632619,-0.0328365,0.825395,0.018092,0.56331,0.381879,0.235585,0.17819,-0.00283944,0.0181076,0.0606549,-0.0152951,0.303084,0.182529
1413393238605760512,-2.19197,2.81206,0.639378,-0.0416865,0.823401,0.0102924,0.565834,0.399019,0.225736,0.119763,-0.00284517,0.0181017,0.060679,-0.0144095,0.30449,0.182462
1413393238655760384,-2.17162,2.82279,0.643482,-0.0497113,0.822153,0.00289145,0.567084,0.411103,0.205328,0.0741646,-0.0028546,0.0181258,0.060714,-0.0141648,0.306855,0.181782
1413393238705760512,-2.15052,2.83241,0.644227,-0.0558585,0.821112,-0.00263902,0.568022,0.416585,0.182213,0.00702709,-0.00286343,0.0181285,0.0607262,-0.0140514,0.308211,0.181244
1413393238755760384,-2.12943,2.84047,0.643435,-0.0604503,0.820244,-0.00697637,0.568769,0.424182,0.145761,-0.0329777,-0.0028734,0.0181229,0.06076,-0.0138836,0.309538,0.180892
1413393238805760512,-2.10789,2.84654,0.640032,-0.0616794,0.819374,-0.00877133,0.569864,0.433091,0.110963,-0.0460387,-0.00287889,0.018142,0.0607803,-0.0146741,0.31127,0.179789
1413393238855760384,-2.08596,2.8507,0.63693,-0.059658,0.819152,-0.00802774,0.570409,0.438648,0.0646907,-0.0361885,-0.002883,0.0181573,0.0608,-0.0148072,0.31327,0.179553
1413393238905760512,-2.06388,2.85277,0.634602,-0.0548691,0.819106,-0.00535492,0.570987,0.452747,0.0262686,-0.0227369,-0.00290097,0.0181877,0.0608432,-0.0148078,0.315062,0.178711
1413393238955760384,-2.04162,2.8531,0.634096,-0.0468078,0.819356,0.000326432,0.571371,0.448547,-0.00771268,-0.00480452,-0.00291319,0.0181865,0.0608689,-0.014541,0.316853,0.178257
1413393239005760512,-2.01914,2.85231,0.633815,-0.0378637,0.819151,0.00617542,0.572294,0.450914,-0.0330292,0.0142725,-0.00294441,0.018171,0.0609175,-0.0136471,0.318914,0.178754
1413393239055760384,-1.99628,2.85112,0.635684,-0.0300813,0.819436,0.0118921,0.572257,0.456193,-0.017584,0.0113787,-0.00296666,0.0181714,0.06095,-0.0138119,0.321334,0.178792
1413393239105760512,-1.97333,2.8498,0.635647,-0.023611,0.819381,0.0160623,0.572537,0.455356,-0.0334101,-0.000593954,-0.00296952,0.0181879,0.0609625,-0.013072,0.322509,0.179333
1413393239155760384,-1.95039,2.84869,0.635961,-0.0189003,0.81923,0.0187816,0.572846,0.459209,-0.0159937,0.020484,-0.00297692,0.0181987,0.060996,-0.0121037,0.323075,0.17902
1413393239205760512,-1.92727,2.8485,0.636744,-0.0150206,0.819633,0.0218781,0.572275,0.464251,0.0106272,0.0021545,-0.00299467,0.0181893,0.0610073,-0.0115108,0.322673,0.179817
1413393239255760384,-1.90407,2.84889,0.637305,-0.0131404,0.819296,0.022396,0.572783,0.462384,0.00704968,0.00762335,-0.00298341,0.0182011,0.0610228,-0.0105168,0.323815,0.179495
1413393239305760512,-1.88078,2.85007,0.637832,-0.0106796,0.819545,0.0232266,0.572445,0.467672,0.0380578,0.0158095,-0.00298687,0.0182094,0.0610383,-0.00961535,0.324209,0.179283
1413393239355760384,-1.85728,2.85254,0.638767,-0.00975865,0.820205,0.0240401,0.571482,0.469272,0.0620528,0.0264179,-0.00298898,0.0182368,0.0610494,-0.00851487,0.325178,0.17865
1413393239405760512,-1.83361,2.8559,0.640184,-0.00917271,0.820457,0.0237827,0.57114,0.474543,0.0741438,0.0307109,-0.00298242,0.0182435,0.0610965,-0.00744953,0.325528,0.17841
1413393239455760384,-1.8097,2.86047,0.641979,-0.00972485,0.821091,0.0230708,0.570247,0.47611,0.107081,0.0376804,-0.0029837,0.0182337,0.0611055,-0.00620941,0.326551,0.177738
1413393239505760512,-1.78548,2.8661,0.645086,-0.00759592,0.821113,0.0247916,0.570177,0.485526,0.122748,0.0695628,-0.00298288,0.0182494,0.0611387,-0.00487922,0.327784,0.177206
1413393239555760384,-1.76115,2.87308,0.648521,-0.00968448,0.821541,0.0230055,0.569603,0.486973,0.146842,0.0698872,-0.00297305,0.018246,0.0611536,-0.00387524,0.3284,0.176936
1413393239605760512,-1.73673,2.88127,0.652564,-0.0137805,0.822063,0.020886,0.568847,0.492556,0.181255,0.078521,-0.00298233,0.0182466,0.0611864,-0.00302487,0.328722,0.176324
1413393239655760384,-1.71189,2.89057,0.658163,-0.020875,0.822134,0.0161364,0.568683,0.500203,0.185299,0.0981337,-0.0029756,0.0182616,0.0612179,-0.00262218,0.328191,0.176161
1413393239705760512,-1.6867,2.90001,0.662974,-0.0313654,0.822275,0.00869402,0.568159,0.50673,0.182797,0.0961593,-0.00297229,0.0182644,0.0612395,-0.00223029,0.327854,0.176324
1413393239755760384,-1.66109,2.9091,0.667705,-0.0399252,0.822085,0.00315312,0.567954,0.516182,0.180266,0.0888311,-0.00297017,0.0182657,0.061266,-0.00151766,0.328341,0.176314
1413393239805760512,-1.63505,2.91726,0.67237,-0.0452957,0.822117,-0.000499459,0.567514,0.526976,0.143782,0.0922797,-0.00296262,0.018271,0.0612949,-0.000714631,0.328677,0.176507
1413393239855760384,-1.60877,2.92404,0.676041,-0.0479181,0.823078,-0.00260468,0.565898,0.530693,0.124068,0.06659,-0.00295773,0.0182964,0.0613037,-0.000923482,0.32882,0.176404
1413393239905760512,-1.58187,2.92963,0.679827,-0.0459374,0.823673,-0.0010706,0.565201,0.542987,0.0994423,0.0797338,-0.00296836,0.0183276,0.0613286,-0.000869674,0.329377,0.176411
1413393239955760384,-1.55433,2.93394,0.683472,-0.0444067,0.823703,-4.21936e-05,0.565281,0.557995,0.074839,0.0877757,-0.00297008,0.0183362,0.0613422,-0.000575481,0.329911,0.176196
1413393240005760512,-1.52607,2.93716,0.687897,-0.0403876,0.822818,0.00272467,0.566862,0.570907,0.0564058,0.0830849,-0.00297422,0.0183586,0.0613634,-0.000327568,0.330805,0.176239
1413393240055760384,-1.4973,2.93962,0.692625,-0.0354865,0.821983,0.0065037,0.568368,0.575434,0.0414195,0.0921446,-0.00298037,0.018372,0.0613852,-8.45005e-05,0.331865,0.176064
1413393240105760512,-1.46833,2.94146,0.697495,-0.0284481,0.8203,0.0116088,0.571108,0.580073,0.0276184,0.10181,-0.00296629,0.0183787,0.0614202,-0.000232227,0.332829,0.176366
1413393240155760384,-1.43927,2.94328,0.701752,-0.0224583,0.819002,0.0164329,0.573115,0.581198,0.042328,0.0684928,-0.00296702,0.0183742,0.061458,-4.15013e-05,0.333712,0.17649
1413393240205760512,-1.41049,2.94565,0.70465,-0.0184947,0.817797,0.0200578,0.57486,0.566025,0.0541608,0.0255086,-0.0029667,0.018368,0.0614775,-0.000439532,0.334837,0.177004
1413393240255760384,-1.3822,2.94858,0.70474,-0.0155737,0.817929,0.02274,0.574658,0.5599,0.0656299,-0.0267446,-0.00296695,0.0183782,0.0615002,-0.000825324,0.335732,0.177717
1413393240305760512,-1.35441,2.9523,0.701453,-0.0166477,0.817929,0.0222768,0.574647,0.554609,0.0878864,-0.0808852,-0.00296312,0.0183622,0.0615215,-0.00107405,0.337297,0.178525
1413393240355760384,-1.32663,2.95687,0.696134,-0.0185593,0.817785,0.0213659,0.574828,0.551783,0.100134,-0.132594,-0.00295866,0.0183762,0.0615537,-0.00129263,0.33825,0.17943
1413393240405760512,-1.29882,2.96214,0.688163,-0.0232669,0.817615,0.0180196,0.575013,0.561969,0.112462,-0.17417,-0.00295143,0.0183962,0.0616012,-0.00133644,0.338964,0.180388
1413393240455760384,-1.27099,2.96775,0.677867,-0.0274799,0.816928,0.0152655,0.575882,0.556402,0.113384,-0.219804,-0.00294952,0.0184152,0.0616303,-0.00127727,0.339694,0.181345
1413393240505760512,-1.24375,2.97345,0.665622,-0.0334898,0.816661,0.010913,0.576042,0.538397,0.111541,-0.235588,-0.00294142,0.0184145,0.0616479,-0.00141948,0.339964,0.181823
1413393240555760384,-1.21711,2.97883,0.654814,-0.0378987,0.815986,0.00752182,0.576779,0.526257,0.102963,-0.200513,-0.00296276,0.018432,0.0616628,-0.00189891,0.34056,0.182537
1413393240605760512,-1.19106,2.98353,0.646688,-0.0414123,0.815537,0.00447987,0.577204,0.508082,0.0861605,-0.152727,-0.00296348,0.0184401,0.0616897,-0.00243687,0.341389,0.18313
1413393240655760384,-1.16492,2.98723,0.640341,-0.0423631,0.815453,0.0029169,0.577264,0.542724,0.0671815,-0.0890715,-0.00296634,0.0184414,0.0617031,-0.0031345,0.342181,0.18375
1413393240705760512,-1.13701,2.98988,0.63758,-0.0412458,0.815745,0.00229609,0.576935,0.576106,0.0429854,0.0590575,-0.0030053,0.0184467,0.0617132,-0.00416673,0.34212,0.184299
1413393240755760384,-1.10831,2.99153,0.639606,-0.0372013,0.81508,0.00344582,0.578143,0.570964,0.0310655,0.123888,-0.00300311,0.0184572,0.0617197,-0.00521105,0.341329,0.184606
1413393240805760512,-1.07993,2.99278,0.645238,-0.0329534,0.813784,0.00473444,0.580213,0.569244,0.01774,0.153743,-0.00300203,0.0184654,0.0617343,-0.0063894,0.34058,0.184283
1413393240855760384,-1.05198,2.99382,0.651868,-0.0275673,0.812409,0.00714328,0.582393,0.552754,0.0215992,0.127129,-0.00302178,0.0184858,0.06175,-0.00757774,0.340042,0.183987
1413393240905760512,-1.02476,2.99489,0.65676,-0.0242367,0.809959,0.00793762,0.585932,0.531598,0.0120988,0.0693326,-0.00301958,0.0185045,0.0617833,-0.0086521,0.338676,0.183494
1413393240955760384,-0.999249,2.99589,0.659014,-0.0213078,0.807313,0.00776405,0.589688,0.493351,0.0173493,-0.00231678,-0.00302139,0.0185243,0.0618148,-0.0103057,0.339519,0.182344
1413393241005760512,-0.975093,2.99726,0.658252,-0.0190934,0.804639,0.00773704,0.593407,0.483014,0.027578,-0.0589666,-0.00301536,0.0185335,0.0618588,-0.0118716,0.340596,0.179184
1413393241055760384,-0.951294,2.99872,0.653965,-0.0189254,0.802462,0.00605887,0.596372,0.469383,0.0265811,-0.114734,-0.00300473,0.0185449,0.0618957,-0.0127596,0.341571,0.176971
1413393241105760512,-0.928447,3.00045,0.645587,-0.0215177,0.801803,0.00259501,0.597195,0.448513,0.0394773,-0.185267,-0.00300413,0.0185544,0.0619179,-0.0136949,0.342502,0.175179
1413393241155760384,-0.906812,3.00232,0.635723,-0.0260697,0.801775,-0.00266786,0.597051,0.418334,0.0369968,-0.241948,-0.00298638,0.0185551,0.0619633,-0.0148489,0.344789,0.172488
1413393241205760512,-0.886452,3.00413,0.621871,-0.0306862,0.802485,-0.00728678,0.595839,0.401791,0.0342586,-0.26509,-0.00298803,0.0185825,0.0619841,-0.015452,0.344642,0.170786
1413393241255760384,-0.867238,3.00545,0.606971,-0.0345513,0.803713,-0.0117332,0.593898,0.378334,0.0194685,-0.269155,-0.0029773,0.0185861,0.0620257,-0.0162135,0.344687,0.168428
1413393241305760512,-0.848813,3.00628,0.594866,-0.0372164,0.806104,-0.0151882,0.590407,0.363055,-0.00134255,-0.250581,-0.00296764,0.0185944,0.0620452,-0.01621,0.343253,0.167161
1413393241355760384,-0.831248,3.0056,0.58021,-0.0366969,0.811301,-0.0164976,0.583243,0.346063,-0.0169461,-0.243997,-0.00296291,0.0186088,0.0620798,-0.0167732,0.344813,0.165265
1413393241405760512,-0.814169,3.00425,0.56679,-0.0364852,0.814879,-0.0177631,0.578209,0.342639,-0.042295,-0.231303,-0.00296091,0.0186257,0.0620961,-0.0173774,0.343071,0.163464
1413393241455760384,-0.797038,3.0017,0.556315,-0.0333041,0.817398,-0.017092,0.574856,0.344084,-0.0672856,-0.196305,-0.00295197,0.0186233,0.0621428,-0.0186591,0.342922,0.160626
1413393241505760512,-0.779718,2.99839,0.548316,-0.0285246,0.818515,-0.0144687,0.573594,0.345287,-0.0730762,-0.16112,-0.00295171,0.0186341,0.0621745,-0.0193269,0.342952,0.158245
1413393241555760384,-0.762185,2.99432,0.5409,-0.0234171,0.817921,-0.0118035,0.574733,0.353447,-0.0942823,-0.157015,-0.00294726,0.0186511,0.0622114,-0.0198968,0.34291,0.156925
1413393241605760512,-0.744447,2.98986,0.534172,-0.0176514,0.816187,-0.00841195,0.577457,0.356746,-0.091802,-0.156508,-0.00294527,0.0186761,0.0622358,-0.0202917,0.34253,0.155028
1413393241655760384,-0.726627,2.98541,0.527411,-0.0136183,0.814879,-0.00547072,0.579446,0.351487,-0.0812432,-0.144933,-0.00294759,0.018647,0.0622611,-0.0208458,0.344838,0.15361
1413393241705760512,-0.709118,2.98119,0.51977,-0.00926414,0.813366,-0.00239652,0.581675,0.348665,-0.0812628,-0.148179,-0.00294828,0.0186724,0.0622868,-0.0215009,0.345797,0.151793
1413393241755760384,-0.691898,2.97744,0.511628,-0.00720033,0.813027,-0.00114859,0.582181,0.346247,-0.0712418,-0.138828,-0.00295333,0.0186802,0.0623161,-0.0223046,0.345998,0.149615
1413393241805760512,-0.674756,2.97434,0.503696,-0.00521259,0.813705,0.000856061,0.581255,0.340355,-0.0491856,-0.140433,-0.00294895,0.0186913,0.0623456,-0.0231217,0.346941,0.147881
1413393241855760384,-0.657657,2.97208,0.496995,-0.00409911,0.814264,0.00259062,0.580474,0.341808,-0.0414157,-0.13135,-0.00295653,0.0186886,0.0623774,-0.023662,0.347687,0.146777
1413393241905760512,-0.640685,2.97065,0.491596,-0.00370147,0.813309,0.00323415,0.581811,0.336176,-0.0228489,-0.0890365,-0.00296086,0.0186974,0.0623993,-0.024146,0.348259,0.145752
1413393241955760384,-0.624123,2.97013,0.486741,-0.00351751,0.811049,0.00520591,0.584945,0.325598,0.00533991,-0.0882915,-0.0029538,0.0187004,0.0624169,-0.0245735,0.349557,0.14525
1413393242005760512,-0.607962,2.97053,0.481825,-0.00425446,0.809365,0.00600135,0.58726,0.320163,0.0137855,-0.0883613,-0.00297243,0.0187082,0.0624328,-0.0248055,0.351277,0.144575
1413393242055760384,-0.592628,2.97219,0.477391,-0.00463202,0.80649,0.00745668,0.591183,0.305194,0.0462681,-0.065356,-0.00296293,0.0187148,0.0624685,-0.0255588,0.349628,0.142393
1413393242105760512,-0.578115,2.97493,0.473088,-0.00506834,0.803987,0.00931416,0.594553,0.2872,0.0615831,-0.0564561,-0.00296271,0.0187313,0.062504,-0.0266612,0.347189,0.140371
1413393242155760384,-0.56468,2.97837,0.467363,-0.00767407,0.800504,0.00875434,0.599215,0.264178,0.069623,-0.0466503,-0.00297392,0.0187616,0.0625227,-0.0268531,0.343761,0.140881
1413393242205760512,-0.552699,2.98287,0.462626,-0.0112495,0.796619,0.00789903,0.604325,0.229027,0.0986936,-0.0321756,-0.00297786,0.0187895,0.0625523,-0.0270952,0.338598,0.141119
1413393242255760384,-0.542367,2.98756,0.457381,-0.0132434,0.794087,0.00800987,0.607607,0.197019,0.0944295,-0.0257326,-0.00298459,0.0188026,0.0625774,-0.0274845,0.335248,0.140503
1413393242305760512,-0.533806,2.99284,0.453851,-0.0155708,0.793055,0.00691858,0.608912,0.160669,0.0964956,-0.0209333,-0.00299224,0.0188329,0.0625964,-0.0289497,0.328816,0.139421
1413393242355760384,-0.526994,2.99885,0.451431,-0.0192951,0.794228,0.00547607,0.60729,0.131747,0.114302,-0.0322153,-0.00300301,0.0188645,0.0626267,-0.0313428,0.32233,0.138044
1413393242405760512,-0.521717,3.00454,0.448916,-0.0247888,0.797434,0.00253025,0.602891,0.0967582,0.110591,-0.0253628,-0.00299168,0.018873,0.0626718,-0.0345539,0.321307,0.134412
1413393242455760384,-0.517624,3.01004,0.447181,-0.030962,0.802574,-0.00118615,0.595748,0.0727783,0.106244,-0.0210526,-0.00298558,0.0188785,0.0626978,-0.035916,0.321122,0.132712
1413393242505760512,-0.514909,3.01398,0.439734,-0.0379866,0.808581,-0.00570058,0.58713,0.053377,0.0955439,-0.0291238,-0.00297564,0.0188635,0.0627332,-0.0374733,0.327584,0.12938
1413393242555760384,-0.512442,3.01738,0.436108,-0.043097,0.813885,-0.00877284,0.57936,0.0523983,0.0698962,0.00109574,-0.00296152,0.0188616,0.0627592,-0.03885,0.333147,0.127289
1413393242605760512,-0.509864,3.01994,0.434976,-0.046757,0.818016,-0.0110994,0.573185,0.0545679,0.039744,0.00917503,-0.0029596,0.0188535,0.0627764,-0.0394586,0.336146,0.126143
1413393242655760384,-0.506668,3.0212,0.435638,-0.0485874,0.82064,-0.0119741,0.56925,0.0699193,0.0199473,0.0310265,-0.00295579,0.0188567,0.0628011,-0.0401553,0.339768,0.124126
1413393242705760512,-0.502793,3.0212,0.43768,-0.0504913,0.821537,-0.0134767,0.567756,0.0873624,-0.0185762,0.0331878,-0.00295254,0.0188746,0.0628131,-0.0403993,0.339362,0.123181
1413393242755760384,-0.498155,3.01967,0.440144,-0.0542654,0.821232,-0.0150503,0.567809,0.0989901,-0.0401771,0.0626968,-0.00294925,0.0188829,0.0628511,-0.0406533,0.339757,0.121602
1413393242805760512,-0.492761,3.01676,0.444002,-0.055575,0.820439,-0.0136038,0.568864,0.117019,-0.0784088,0.0661051,-0.00294305,0.0188858,0.0628774,-0.04094,0.338784,0.119787
1413393242855760384,-0.486543,3.01217,0.448017,-0.0551362,0.819654,-0.00900461,0.570128,0.131366,-0.108655,0.0868236,-0.00293774,0.0188829,0.0629077,-0.0411804,0.3394,0.117669
1413393242905760512,-0.479418,3.00623,0.452859,-0.0498972,0.81893,0.00130056,0.571718,0.144248,-0.123336,0.0777641,-0.00293578,0.0188786,0.0629279,-0.0413784,0.339545,0.116915
1413393242955760384,-0.47208,2.99929,0.457008,-0.0462158,0.819577,0.011284,0.570991,0.149842,-0.154465,0.095718,-0.00292688,0.0188786,0.0629473,-0.0422407,0.340984,0.114435
1413393243005760512,-0.464325,2.99199,0.46201,-0.0442161,0.820759,0.0219846,0.569136,0.161619,-0.145737,0.0982365,-0.00292699,0.0188909,0.0629779,-0.0427036,0.341223,0.112907
1413393243055760384,-0.455865,2.9847,0.466845,-0.0444589,0.821476,0.033669,0.56751,0.174366,-0.143621,0.0869123,-0.00292574,0.0188919,0.0630086,-0.0429073,0.341548,0.111722
1413393243105760512,-0.446783,2.97751,0.469554,-0.0466275,0.822377,0.0446294,0.565271,0.191821,-0.145177,0.100527,-0.00292108,0.0188951,0.0630327,-0.0430113,0.341211,0.111596
1413393243155760384,-0.437346,2.97106,0.470784,-0.0519707,0.821724,0.0558231,0.56476,0.20576,-0.115115,0.120347,-0.00293006,0.0189385,0.063051,-0.0435457,0.338692,0.110793
1413393243205760512,-0.426815,2.96542,0.476436,-0.0585373,0.818493,0.0666892,0.567622,0.220098,-0.105171,0.145115,-0.00293856,0.0189384,0.0630715,-0.0436142,0.338752,0.10984
1413393243255760384,-0.415636,2.95989,0.483808,-0.0645029,0.813132,0.0754853,0.573548,0.228975,-0.116022,0.143515,-0.00292947,0.0189261,0.0631065,-0.044136,0.341393,0.108493
1413393243305760512,-0.404284,2.95476,0.489928,-0.069906,0.807566,0.0837813,0.579596,0.223739,-0.0858163,0.0939977,-0.00293324,0.0189322,0.0631262,-0.0445294,0.34298,0.107189
1413393243355760384,-0.393029,2.95014,0.492892,-0.0758037,0.803256,0.0900141,0.583893,0.222366,-0.0971383,0.0420833,-0.00293524,0.0189249,0.0631468,-0.0448487,0.345022,0.105555
1413393243405760512,-0.382405,2.94557,0.493911,-0.0800151,0.799139,0.0950646,0.588164,0.204653,-0.0947789,-0.00558483,-0.00293122,0.0189312,0.0631711,-0.0454927,0.345284,0.103645
1413393243455760384,-0.372743,2.94142,0.49286,-0.0842311,0.796423,0.0997757,0.590475,0.185255,-0.0785617,-0.042117,-0.00292949,0.0189266,0.0631991,-0.0459318,0.345571,0.101732
1413393243505760512,-0.363834,2.93729,0.489041,-0.0878015,0.7942,0.103355,0.59233,0.167089,-0.0799758,-0.105649,-0.00293494,0.018943,0.0632159,-0.0468695,0.34552,0.100949
1413393243555760384,-0.355807,2.93324,0.482218,-0.0910723,0.792972,0.106186,0.592981,0.144796,-0.0805236,-0.14646,-0.0029411,0.0189498,0.0632285,-0.0476521,0.345676,0.100532
1413393243605760512,-0.349017,2.92909,0.47469,-0.0930778,0.792518,0.108797,0.592803,0.125711,-0.0797705,-0.152062,-0.00293026,0.0189497,0.0632599,-0.0481221,0.345209,0.0992222
1413393243655760384,-0.343431,2.92488,0.466958,-0.094316,0.792655,0.111101,0.591996,0.0996781,-0.0770958,-0.159552,-0.00293373,0.0189584,0.0632767,-0.0489771,0.345355,0.0981593
1413393243705760512,-0.339312,2.92075,0.459299,-0.0944953,0.793665,0.113589,0.590139,0.0768245,-0.0681732,-0.12617,-0.00292977,0.0189563,0.0633161,-0.049795,0.345476,0.0962914
1413393243755760384,-0.336345,2.91688,0.452946,-0.0948119,0.795104,0.115101,0.587854,0.0514913,-0.070479,-0.113672,-0.0029131,0.018955,0.0633533,-0.0501724,0.345038,0.0944315
1413393243805760512,-0.334339,2.91309,0.448169,-0.0941506,0.796461,0.116701,0.585804,0.0265424,-0.0674911,-0.0832529,-0.00291305,0.0189657,0.0633851,-0.0506572,0.344909,0.0929424
1413393243855760384,-0.333591,2.90965,0.444954,-0.095403,0.797076,0.116893,0.584726,0.00913231,-0.057381,-0.0727054,-0.00290559,0.0189719,0.0634207,-0.0511772,0.34429,0.0917938
1413393243905760512,-0.333789,2.90613,0.442202,-0.0948266,0.797338,0.11768,0.584305,-0.00481066,-0.0588781,-0.0381957,-0.00289046,0.0189765,0.0634396,-0.051543,0.343456,0.0904503
1413393243955760384,-0.334569,2.90281,0.440509,-0.0947599,0.797295,0.118063,0.584296,-0.0214304,-0.0515511,-0.0272577,-0.00288124,0.01898,0.0634605,-0.0517242,0.343486,0.0899394
1413393244005760512,-0.336177,2.89966,0.439486,-0.0944458,0.797595,0.118374,0.583875,-0.033129,-0.0435998,-0.0213991,-0.00286942,0.0189917,0.063468,-0.0518096,0.342832,0.0888847
1413393244055760384,-0.338386,2.89676,0.439499,-0.0930361,0.797262,0.118846,0.58446,-0.0458398,-0.0365423,-0.000739105,-0.00284382,0.0190182,0.063487,-0.0519336,0.343017,0.0879511
1413393244105760512,-0.341361,2.89421,0.43994,-0.0919139,0.797533,0.11925,0.584186,-0.0638589,-0.0272059,0.0219463,-0.00282798,0.0190305,0.0635121,-0.0519046,0.343016,0.0879149
1413393244155760384,-0.345269,2.89223,0.441066,-0.0913103,0.797639,0.120388,0.583901,-0.0858589,-0.0160349,0.00414952,-0.00281098,0.019033,0.0635239,-0.0519741,0.342478,0.0869133
1413393244205760512,-0.35034,2.89088,0.441951,-0.0931259,0.797259,0.122357,0.583725,-0.0993236,0.00961559,0.00840066,-0.00278285,0.019047,0.0635432,-0.0525351,0.342164,0.0850226
1413393244255760384,-0.356096,2.89024,0.443392,-0.094948,0.797168,0.126618,0.582645,-0.114073,0.0218714,0.014032,-0.00276693,0.0190625,0.0635542,-0.0529424,0.337778,0.0847468
1413393244305760512,-0.362499,2.89026,0.442313,-0.0975247,0.796984,0.132135,0.581245,-0.128074,0.0393445,0.028031,-0.00274195,0.0190656,0.0635642,-0.0531756,0.336296,0.0848864
1413393244355760384,-0.369369,2.89141,0.440382,-0.101925,0.796517,0.138604,0.579621,-0.137886,0.0652682,0.0157933,-0.00273473,0.0190772,0.0635816,-0.053212,0.335351,0.0847837
1413393244405760512,-0.37629,2.89368,0.440071,-0.106785,0.794816,0.143692,0.579842,-0.138603,0.0574127,-0.0198332,-0.00273237,0.0190663,0.0635997,-0.0535845,0.335365,0.0831835
1413393244455760384,-0.383787,2.89595,0.438293,-0.112521,0.79276,0.147262,0.580676,-0.158531,0.0652952,-0.0589306,-0.00272414,0.019068,0.0636219,-0.0545049,0.337725,0.0820065
1413393244505760512,-0.392308,2.89918,0.434221,-0.118278,0.791463,0.15051,0.580469,-0.172172,0.0706837,-0.118332,-0.00272053,0.0190803,0.063644,-0.0549591,0.337427,0.0804663
1413393244555760384,-0.401231,2.90232,0.425837,-0.123436,0.790028,0.152717,0.580772,-0.181329,0.0559446,-0.180988,-0.0027189,0.0190891,0.063673,-0.0555404,0.336151,0.0788741
1413393244605760512,-0.410522,2.90554,0.414078,-0.127889,0.789876,0.155026,0.579402,-0.185518,0.0664861,-0.20907,-0.00272029,0.0191073,0.0636965,-0.0558657,0.335472,0.077828
1413393244655760384,-0.42035,2.90873,0.401958,-0.131977,0.789844,0.15696,0.578007,-0.182198,0.0654221,-0.177325,-0.00271836,0.019095,0.0637285,-0.0565364,0.335646,0.0752783
1413393244705760512,-0.430319,2.91181,0.394585,-0.135102,0.788868,0.158882,0.578093,-0.2231,0.0437789,-0.110613,-0.00271616,0.019116,0.063754,-0.0567586,0.335921,0.0740443
1413393244755760384,-0.442532,2.91424,0.388517,-0.139978,0.789559,0.158492,0.576093,-0.243384,0.0311129,-0.103946,-0.00272033,0.0191271,0.0637656,-0.0559278,0.334094,0.0737457
1413393244805760512,-0.454972,2.91577,0.3856,-0.145215,0.789494,0.157215,0.575235,-0.247004,0.0233743,-0.0391158,-0.00272747,0.0191424,0.0637999,-0.0549944,0.333388,0.0739848
1413393244855760384,-0.46795,2.91643,0.385097,-0.148678,0.790199,0.156622,0.573542,-0.262733,0.00992547,0.0506191,-0.00272498,0.0191587,0.063816,-0.0542541,0.331604,0.0736639
1413393244905760512,-0.480033,2.91665,0.390575,-0.151152,0.790206,0.155496,0.573192,-0.230027,-0.00312891,0.141096,-0.00272237,0.01916,0.0638524,-0.0531691,0.331224,0.0735569
1413393244955760384,-0.491358,2.91587,0.399695,-0.151481,0.790002,0.155565,0.573367,-0.243092,-0.0225951,0.209318,-0.00272485,0.019172,0.0638846,-0.0521716,0.330344,0.0729488
1413393245005760512,-0.503735,2.91415,0.408573,-0.148649,0.791256,0.15753,0.57184,-0.246805,-0.0425173,0.194846,-0.0027198,0.0191795,0.0639085,-0.0512651,0.32959,0.0724859
1413393245055760384,-0.516435,2.91146,0.414905,-0.146208,0.79355,0.158365,0.569053,-0.253247,-0.0536677,0.161553,-0.00272219,0.019178,0.0639245,-0.049998,0.328934,0.0733102
1413393245105760512,-0.529166,2.90854,0.420834,-0.143147,0.796102,0.160091,0.565775,-0.252866,-0.0575019,0.108015,-0.00272648,0.0191699,0.0639401,-0.0487976,0.328568,0.0730319
1413393245155760384,-0.541448,2.90545,0.425022,-0.141141,0.799168,0.160518,0.561821,-0.242534,-0.0679601,0.0601997,-0.00272534,0.0191718,0.0639566,-0.0480518,0.328112,0.0725131
1413393245205760512,-0.553354,2.90211,0.427735,-0.138798,0.80219,0.161341,0.557849,-0.235958,-0.0720701,0.0172763,-0.0027139,0.0191613,0.0639861,-0.0472786,0.326542,0.0721191
1413393245255760384,-0.564881,2.8984,0.427623,-0.136354,0.803415,0.162542,0.556338,-0.227581,-0.0761502,-0.038089,-0.00271984,0.0191495,0.0640014,-0.0468841,0.326547,0.072263
1413393245305760512,-0.5757,2.89479,0.422794,-0.134058,0.804194,0.163578,0.555466,-0.211854,-0.0657751,-0.0960449,-0.00273087,0.0191698,0.0640175,-0.0464848,0.324766,0.0744078
1413393245355760384,-0.586018,2.89134,0.413604,-0.131601,0.803644,0.165009,0.556426,-0.200738,-0.0577509,-0.136975,-0.00272876,0.0191892,0.06403,-0.0463415,0.323627,0.0761817
1413393245405760512,-0.596049,2.88836,0.405527,-0.129772,0.802735,0.165789,0.557934,-0.179104,-0.059812,-0.16886,-0.00272955,0.0191808,0.0640393,-0.0459569,0.322103,0.0762173
1413393245455760384,-0.604765,2.88613,0.399567,-0.127441,0.801307,0.167004,0.560158,-0.180177,-0.0523076,-0.209849,-0.00274559,0.0192187,0.0640708,-0.0453889,0.319237,0.077813
1413393245505760512,-0.613615,2.88357,0.387464,-0.125614,0.799857,0.168015,0.562335,-0.176548,-0.039309,-0.234792,-0.00273802,0.0192513,0.0641179,-0.0440193,0.318905,0.0786849
1413393245555760384,-0.621681,2.88215,0.381108,-0.123781,0.798,0.168635,0.565187,-0.170364,-0.0390961,-0.229167,-0.0027561,0.019249,0.0640962,-0.0414917,0.319971,0.0823842
1413393245605760512,-0.601408,2.88575,0.476158,-0.121692,0.813178,0.167427,0.543968,-0.190317,-0.0301253,-0.217561,-0.00309053,0.0201924,0.0628175,0.148786,0.440831,0.603128
