#timestamp, p_RS_R_x [m], p_RS_R_y [m], p_RS_R_z [m], q_RS_w [], q_RS_x [], q_RS_y [], q_RS_z [], v_RS_R_x [m s^-1], v_RS_R_y [m s^-1], v_RS_R_z [m s^-1], b_w_RS_S_x [rad s^-1], b_w_RS_S_y [rad s^-1], b_w_RS_S_z [rad s^-1], b_a_RS_S_x [m s^-2], b_a_RS_S_y [m s^-2], b_a_RS_S_z [m s^-2]
1413393212255760384,-1.07612,0.492468,1.32994,0.604798,-0.00590872,-0.796308,0.00888769,-0.00567892,-0.00559354,0.00184591,-5.45415e-05,0.000469354,0.00163072,2.35586e-05,-9.25248e-07,-1.07512e-05
1413393212305760512,-1.08352,0.500849,1.33035,0.607408,-0.0232494,-0.794016,-0.0073814,-0.0107619,-0.00536029,0.00179637,-4.83789e-05,0.000578378,0.00205278,7.91471e-05,-4.02344e-05,-0.000134849
1413393212355760384,-1.08725,0.495847,1.33104,0.605216,-0.0203617,-0.795762,-0.00793333,-0.00546789,-0.00273936,0.00151331,-7.12451e-05,0.00069039,0.00243791,0.000126102,-8.12411e-05,-0.0004756
1413393212405760512,-1.09799,0.507256,1.33626,0.602474,-0.00678192,-0.798108,-0.0016514,-0.00258654,-0.000430891,-0.00036795,-4.013e-05,0.000791284,0.00283961,-2.86986e-05,0.000374713,-0.000912962
1413393212455760384,-1.098,0.508397,1.34177,0.603493,-0.00540753,-0.79735,0.000715209,-0.000606867,-0.00375962,0.000257006,-6.67476e-05,0.000893206,0.00322738,-0.000413067,9.90483e-05,-0.00121537
1413393212505760512,-1.09957,0.510889,1.34091,0.604006,-0.00473175,-0.796964,0.00167678,-0.000651355,-0.00282513,0.00171898,-8.68526e-05,0.000994931,0.0035944,-0.000899125,-0.000184375,-0.00156219
1413393212555760384,-1.09976,0.51303,1.33973,0.604281,-0.00174871,-0.796759,0.00413247,-0.0016471,-0.00573476,-0.001058,-7.31186e-05,0.00111906,0.00400466,-0.00339428,-8.39505e-05,-0.00222328
1413393212605760512,-1.09609,0.507016,1.34319,0.603839,-0.00323816,-0.797096,0.00234852,-0.00250833,0.000641982,-0.000134337,-8.49426e-05,0.00123495,0.00435406,-0.00416778,-0.000112503,-0.00438048
1413393212655760384,-1.09563,0.50917,1.34217,0.604256,-0.00215023,-0.796778,0.00392661,-0.00301002,-0.00165929,-8.61218e-05,-8.60481e-05,0.00134799,0.0047417,-0.00595898,-0.000679313,-0.00437579
1413393212705760512,-1.09746,0.512362,1.33987,0.604265,-0.00218112,-0.796767,0.00465353,0.000481909,-0.00292885,0.000687417,-0.000106348,0.00144988,0.00507418,-0.00586763,-0.00120967,-0.00337559
1413393212755760384,-1.09682,0.511546,1.3409,0.60418,-0.00150436,-0.796835,0.00428291,0.000306662,0.00172809,0.00222579,-0.000115234,0.00156163,0.00545107,-0.00730916,-0.000403161,-0.0062361
1413393212805760512,-1.09671,0.510598,1.34257,0.604252,-0.000772248,-0.796777,0.00500104,8.45699e-05,-0.000888684,0.0025825,-0.000122296,0.00166555,0.00581053,-0.00762675,-0.000219248,-0.00867398
1413393212855760384,-1.09434,0.505407,1.33939,0.60396,-0.004473,-0.797001,0.00147407,0.000633819,0.0023386,0.00180096,-0.000135395,0.0017624,0.00613137,-0.00506036,-0.00148436,-0.0105461
1413393212905760512,-1.09846,0.510276,1.34097,0.604128,-0.00207908,-0.796878,0.00326113,-0.00199218,0.00103125,0.000636884,-0.000131286,0.00186446,0.00649886,-0.00659028,0.000548459,-0.0126444
1413393212955760384,-1.08368,0.488253,1.3407,0.604351,-0.0109244,-0.796629,-0.00489466,-0.00314252,-0.00286203,-0.00135202,-0.000130613,0.00197398,0.00684487,-0.00584599,-0.00761499,-0.0135457
1413393213005760512,-1.08024,0.483981,1.34215,0.604541,-0.0120101,-0.796463,-0.00575686,0.000393811,0.00173417,-0.000109086,-0.00014522,0.0020767,0.00720112,-0.00838825,-0.0105492,-0.0123936
1413393213055760384,-1.08209,0.48522,1.34285,0.60458,-0.011447,-0.796444,-0.0054469,0.000444097,0.000281563,-0.00115191,-0.000156914,0.00217356,0.00754389,-0.00918949,-0.0112693,-0.0142352
1413393213105760512,-1.08963,0.494348,1.34438,0.604246,-0.00591913,-0.796776,-0.000231765,-0.000672417,-0.00166414,-0.00469753,-0.000154757,0.00226909,0.00789076,-0.0118217,-0.00351841,-0.0148659
1413393213155760384,-1.09025,0.495968,1.34254,0.604478,-0.00660443,-0.796595,-0.00047522,0.000830361,0.00169815,-2.20423e-05,-0.00017265,0.00237321,0.00820512,-0.0145693,-0.00521773,-0.0108419
1413393213205760512,-1.09052,0.495811,1.34328,0.604357,-0.00701579,-0.796683,-0.000765679,0.00239499,0.00259489,0.00129391,-0.000182091,0.00246218,0.00855102,-0.0144564,-0.00593874,-0.0129411
1413393213255760384,-1.09115,0.496346,1.34352,0.604226,-0.00693772,-0.796783,-0.00083926,0.00356198,0.00140553,0.0032527,-0.000199414,0.002545,0.00888166,-0.0135373,-0.00600704,-0.0137215
1413393213305760512,-1.0913,0.497358,1.34144,0.604451,-0.00692084,-0.796613,-0.000613662,0.00311816,0.00103974,0.00383695,-0.000221008,0.00267233,0.00924671,-0.0213879,-0.00907681,-0.00681324
1413393213355760384,-1.08061,0.485432,1.34286,0.604336,-0.0127404,-0.796607,-0.00571322,0.00505947,0.00586565,0.00187368,-0.000234639,0.00278447,0.00956519,-0.022919,-0.0187785,-0.00802951
1413393213405760512,-1.07594,0.476207,1.33922,0.604356,-0.0185169,-0.7964,-0.0125985,0.00406731,0.00412151,0.00435634,-0.00022031,0.00289258,0.00987874,-0.0227407,-0.0320041,-0.0206165
1413393213455760384,-1.07315,0.472114,1.33904,0.604485,-0.0203478,-0.796222,-0.0146408,0.0021142,0.000921976,0.00262876,-0.000222984,0.00299132,0.0102145,-0.0233526,-0.039491,-0.0233493
1413393213505760512,-1.07379,0.473079,1.33931,0.604452,-0.0199324,-0.796262,-0.0143773,-0.000404062,0.000817277,0.00287648,-0.000240038,0.00308477,0.0105144,-0.022019,-0.0405979,-0.0251096
1413393213555760384,-1.07457,0.474272,1.33838,0.604473,-0.0197349,-0.796252,-0.0143314,-0.00079304,0.00149605,0.00341629,-0.000232212,0.00317418,0.0108422,-0.0223497,-0.0413745,-0.0271936
1413393213605760512,-1.07462,0.47414,1.33886,0.604402,-0.0195463,-0.796314,-0.0141424,-0.000598347,0.00165857,0.00236235,-0.000231641,0.00326164,0.0111469,-0.0225763,-0.0412527,-0.0293483
1413393213655760384,-1.07455,0.473912,1.33901,0.604442,-0.0192986,-0.79629,-0.0141595,-0.00104245,-0.000635122,0.000208659,-0.000241565,0.00334069,0.0114453,-0.0200405,-0.0432084,-0.028801
1413393213705760512,-1.07519,0.474586,1.33864,0.604495,-0.0192331,-0.796256,-0.0138805,-0.00106359,-0.0028937,-0.000238154,-0.000254062,0.00341516,0.0117571,-0.0208873,-0.0457287,-0.0314387
1413393213755760384,-1.07587,0.475428,1.33828,0.604492,-0.0190755,-0.796264,-0.0137731,-0.000200268,-0.000893186,-0.00162862,-0.000256819,0.00350466,0.0120582,-0.0219093,-0.0474061,-0.0305924
1413393213805760512,-1.07614,0.475462,1.33849,0.604475,-0.0190142,-0.796278,-0.0138134,-0.00109607,-0.000877687,-0.00502939,-0.0002165,0.00357877,0.0123492,-0.0214147,-0.0445114,-0.0308494
1413393213855760384,-1.07623,0.475539,1.33817,0.604547,-0.0191692,-0.79622,-0.0137687,-0.00118623,-0.000929817,-0.00365096,-0.000277591,0.00363673,0.0126521,-0.0197141,-0.0475984,-0.0298789
1413393213905760512,-1.07626,0.475846,1.33778,0.604532,-0.0190296,-0.796235,-0.0137463,-0.000279228,-0.00318378,-0.00374115,-0.000290566,0.003741,0.012974,-0.0233816,-0.0477295,-0.0309999
1413393213955760384,-1.07572,0.47544,1.33783,0.604454,-0.0189788,-0.796295,-0.0137538,-0.000159341,-0.00469208,-0.00107152,-0.000273695,0.00381806,0.0132569,-0.025597,-0.0459459,-0.0334939
1413393214005760512,-1.07552,0.474968,1.33773,0.604408,-0.019025,-0.79633,-0.0137286,-1.72964e-05,0.00865042,0.00254057,-0.000273557,0.00390891,0.0135679,-0.0280773,-0.0473939,-0.0335887
1413393214055760384,-1.07556,0.475429,1.3375,0.604587,-0.0191503,-0.796189,-0.0138607,0.00105215,0.00504502,0.00107592,-0.000290559,0.00400116,0.0138523,-0.0315828,-0.0497567,-0.0344124
1413393214105760512,-1.07592,0.475754,1.33771,0.604279,-0.0189226,-0.796431,-0.013661,-0.00227648,-0.000127826,0.00252474,-0.000297269,0.00408274,0.014133,-0.0317171,-0.0518721,-0.0357311
1413393214155760384,-1.07703,0.477038,1.33709,0.604491,-0.0187996,-0.796276,-0.0135197,0.00116058,-0.00116189,0.00157991,-0.000330287,0.00416149,0.0144188,-0.031088,-0.0568928,-0.0294703
1413393214205760512,-1.07742,0.477658,1.33682,0.604414,-0.0189047,-0.796334,-0.0133735,0.000371815,0.00293199,0.000955743,-0.000351441,0.00423617,0.0146789,-0.0314036,-0.0597283,-0.0284302
1413393214255760384,-1.07801,0.478446,1.33682,0.604494,-0.0184476,-0.796284,-0.0133677,0.00160759,0.00314812,0.000571462,-0.000364979,0.00432557,0.0149606,-0.033289,-0.0595675,-0.0278763
1413393214305760512,-1.07814,0.479033,1.33684,0.60448,-0.0184976,-0.796298,-0.0131377,0.00343038,0.000186717,-0.00134683,-0.000375313,0.00440312,0.0152382,-0.0341271,-0.0590935,-0.0313992
1413393214355760384,-1.07792,0.479344,1.33689,0.604549,-0.0183734,-0.79625,-0.0130226,0.00327102,0.00469599,1.99334e-05,-0.000378357,0.00448332,0.0155212,-0.0342228,-0.0562217,-0.0349362
1413393214405760512,-1.07712,0.478569,1.33676,0.604596,-0.0186238,-0.796204,-0.0132818,0.00253307,0.00149976,-0.000681216,-0.000379273,0.00456082,0.0157993,-0.0363483,-0.0553935,-0.0410214
1413393214455760384,-1.07614,0.477798,1.33664,0.604839,-0.0189369,-0.796012,-0.0132872,0.000776393,0.00152086,0.000548674,-0.000377641,0.00464229,0.0160733,-0.0379625,-0.0540836,-0.0461165
1413393214505760512,-1.07478,0.476726,1.33565,0.605013,-0.0194212,-0.795859,-0.0138039,-0.000642241,6.94238e-05,0.00245209,-0.000382314,0.00472612,0.0163452,-0.0407314,-0.055849,-0.0505998
1413393214555760384,-1.07482,0.476836,1.3353,0.605085,-0.0194702,-0.795806,-0.0136421,-0.000788663,-0.00144333,0.00090059,-0.00038533,0.00479566,0.0166072,-0.0380332,-0.0563303,-0.0493226
1413393214605760512,-1.07537,0.477348,1.33529,0.605075,-0.019252,-0.795819,-0.0136628,-0.00260972,0.000563987,0.000165161,-0.000398211,0.00486448,0.0168764,-0.0371937,-0.0570893,-0.0515315
1413393214655760384,-1.07462,0.476746,1.33393,0.605368,-0.0195075,-0.795588,-0.0137669,0.000227659,-0.00117729,0.00156855,-0.00041345,0.00495015,0.0171401,-0.0408966,-0.057341,-0.0514149
1413393214705760512,-1.0751,0.477176,1.33402,0.605427,-0.0193025,-0.795551,-0.0135846,-0.00107018,0.000290445,-0.0013181,-0.000413072,0.0050187,0.0173985,-0.0396818,-0.0558741,-0.05407
1413393214755760384,-1.07377,0.475945,1.33386,0.605568,-0.0197779,-0.795425,-0.0139757,5.88798e-05,-0.00152809,-9.10986e-05,-0.000409249,0.00510689,0.0176589,-0.041783,-0.0545537,-0.061144
1413393214805760512,-1.07267,0.474802,1.333,0.605825,-0.0202356,-0.795215,-0.0141707,0.000797238,-0.000731945,0.000344223,-0.000427967,0.00517411,0.01791,-0.0410753,-0.0558931,-0.065042
1413393214855760384,-1.07143,0.473974,1.33355,0.606139,-0.020572,-0.794961,-0.0144662,0.000668482,-0.000124855,0.000197499,-0.000443644,0.00524666,0.0181758,-0.0416299,-0.0555775,-0.0732687
1413393214905760512,-1.0713,0.47399,1.33297,0.60616,-0.0206473,-0.794942,-0.0145701,0.000673245,-0.000512806,0.000194705,-0.00045971,0.00532233,0.0184382,-0.0445322,-0.058056,-0.0701877
1413393214955760384,-1.07138,0.473704,1.3334,0.606127,-0.0207344,-0.794965,-0.0145546,-0.000500817,-0.000320493,0.00104526,-0.000444843,0.00539698,0.0186711,-0.045531,-0.0543318,-0.0752417
1413393215005760512,-1.07162,0.474166,1.33322,0.606138,-0.0208188,-0.794953,-0.0146129,0.000129809,0.00121009,0.00252703,-0.000452254,0.00547094,0.0189125,-0.0460147,-0.0563409,-0.07204
1413393215055760384,-1.07144,0.473586,1.33343,0.605931,-0.0209583,-0.795099,-0.0150381,-0.00238841,-0.00312291,0.00411811,-0.000450046,0.00554725,0.0191522,-0.0461057,-0.0529615,-0.0743291
1413393215105760512,-1.07166,0.473819,1.33343,0.605782,-0.0210159,-0.79522,-0.0145653,-0.00313273,-0.00862505,-0.00180697,-0.000454911,0.00561039,0.0193965,-0.0434096,-0.0506008,-0.0712492
1413393215155760384,-1.07179,0.473612,1.33329,0.60591,-0.0211055,-0.795118,-0.0147131,-0.0014961,-0.00245013,-0.000457578,-0.00047772,0.00568382,0.0196452,-0.0426501,-0.0545049,-0.0703298
1413393215205760512,-1.07147,0.473084,1.33324,0.605751,-0.0211774,-0.795234,-0.0148443,-0.00184863,-0.00280217,-0.00239601,-0.00047906,0.00575617,0.0198878,-0.043383,-0.0542167,-0.0721405
1413393215255760384,-1.07064,0.471919,1.33308,0.605798,-0.0214621,-0.795188,-0.0149879,-0.0028854,-0.00369679,-0.00380135,-0.000457218,0.00582548,0.0201284,-0.0446345,-0.048536,-0.0789117
1413393215305760512,-1.06988,0.470855,1.33287,0.605787,-0.0218175,-0.79518,-0.0153665,-0.00485879,-0.00324457,-0.00357378,-0.000465498,0.00589688,0.0203676,-0.0458393,-0.0489679,-0.0809806
1413393215355760384,-1.06935,0.469651,1.33274,0.6058,-0.0220727,-0.795156,-0.0156944,-0.00427165,-0.00493496,-0.00396331,-0.000469253,0.00596083,0.0205997,-0.0443945,-0.0528765,-0.0807551
1413393215405760512,-1.06808,0.467845,1.33299,0.605616,-0.0225218,-0.795276,-0.0160763,-0.00619855,-0.00359615,-0.00262299,-0.000457677,0.00601264,0.0208331,-0.0417814,-0.0506446,-0.0809326
1413393215455760384,-1.06661,0.465119,1.33362,0.605406,-0.0230052,-0.79541,-0.0166575,-0.00886997,-0.00285863,-0.000490776,-0.000450298,0.00610226,0.02107,-0.0416645,-0.0529001,-0.0762925
1413393215505760512,-1.06561,0.462687,1.33374,0.605254,-0.0236532,-0.795497,-0.0171165,-0.00688877,-0.00484689,-0.00327384,-0.000443129,0.00614495,0.0212758,-0.04028,-0.0505772,-0.0826873
1413393215555760384,-1.06524,0.461736,1.33348,0.605148,-0.0240347,-0.795557,-0.0175467,-0.00970037,-0.00552648,-0.00050472,-0.000450433,0.00621902,0.0215183,-0.0478897,-0.0557849,-0.0800723
1413393215605760512,-1.0644,0.459963,1.33367,0.605158,-0.0243121,-0.79553,-0.0180159,-0.0102783,-0.00605849,0.00397113,-0.000454979,0.00630264,0.0217745,-0.0548989,-0.0620376,-0.0786624
1413393215655760384,-1.06431,0.45927,1.33373,0.605028,-0.0245808,-0.795621,-0.0179944,-0.00898654,-0.00218181,0.0047015,-0.000456987,0.00636073,0.0220016,-0.0573053,-0.0651945,-0.0825694
1413393215705760512,-1.06449,0.458648,1.33433,0.604406,-0.0248306,-0.796084,-0.018102,-0.00455549,-0.00378558,-0.00172093,-0.00047141,0.00644087,0.0222201,-0.0565366,-0.0700441,-0.0814596
1413393215755760384,-1.06373,0.457295,1.33437,0.603802,-0.0251865,-0.796515,-0.0188217,-0.00147752,-0.000161978,-0.00345363,-0.000479542,0.00651411,0.0224211,-0.0585215,-0.068518,-0.0815937
1413393215805760512,-1.06295,0.455784,1.335,0.603235,-0.0255352,-0.796921,-0.019319,0.00244993,-0.00218787,0.0108422,-0.000482429,0.00658474,0.022646,-0.0559751,-0.0738948,-0.0749087
1413393215855760384,-1.06243,0.454862,1.33566,0.602919,-0.0258995,-0.797139,-0.0197037,-0.000555402,0.00153663,0.00872192,-0.000487539,0.00666297,0.022899,-0.058118,-0.0789439,-0.0694828
1413393215905760512,-1.06209,0.45418,1.33579,0.602791,-0.0262086,-0.797221,-0.0198951,-0.000949299,0.000196972,0.00840248,-0.00050367,0.00672251,0.0230702,-0.0545747,-0.0763759,-0.0732005
1413393215955760384,-1.06151,0.45341,1.33571,0.602733,-0.0266575,-0.797256,-0.0196163,0.00388004,0.00358152,0.00689278,-0.000516799,0.0067964,0.0233046,-0.0594928,-0.0815265,-0.0649702
1413393216005760512,-1.05985,0.45137,1.3357,0.602829,-0.0270011,-0.797142,-0.0208133,0.00980362,0.00275419,0.00786824,-0.000514603,0.00684125,0.0234963,-0.0558608,-0.0816003,-0.0714477
1413393216055760384,-1.06056,0.452634,1.33598,0.602808,-0.0263504,-0.797184,-0.0206425,0.00132895,0.00283146,0.00302888,-0.000522866,0.0068795,0.0236899,-0.0521113,-0.0695009,-0.075829
1413393216105760512,-1.06052,0.452713,1.33589,0.602749,-0.0263919,-0.797235,-0.0203372,0.000412414,0.00273888,-0.00667175,-0.000549608,0.00695704,0.0239134,-0.0566176,-0.0711655,-0.0755037
1413393216155760384,-1.06037,0.45212,1.3358,0.603135,-0.0263008,-0.796939,-0.0206168,-0.00343431,-0.00198411,-0.00557436,-0.000510287,0.00700147,0.0241068,-0.0522487,-0.05903,-0.0803165
1413393216205760512,-1.06008,0.451324,1.33561,0.602982,-0.0264402,-0.797046,-0.020794,-0.00570276,0.00139147,-0.00791674,-0.000528404,0.00704949,0.0243277,-0.0564267,-0.065058,-0.0788073
1413393216255760384,-1.05987,0.450631,1.33522,0.602098,-0.0265411,-0.797714,-0.0206725,-0.0131782,0.00240711,-0.00101785,-0.000526823,0.00713386,0.0245549,-0.0636593,-0.0670983,-0.0749752
1413393216305760512,-1.05962,0.449814,1.33541,0.601034,-0.0267374,-0.798505,-0.0208104,-0.010239,-0.00475496,-0.00161362,-0.000511847,0.00715995,0.0247454,-0.0696456,-0.0603145,-0.0760865
1413393216355760384,-1.05907,0.448866,1.336,0.600597,-0.0274627,-0.798803,-0.0210663,-0.00227985,0.000975816,-0.00472869,-0.000521103,0.00724003,0.024932,-0.0635591,-0.0664726,-0.0778668
1413393216405760512,-1.0593,0.448646,1.33603,0.600069,-0.027413,-0.7992,-0.0210903,-0.00325051,-0.010599,-0.00808674,-0.00051677,0.0073023,0.0251337,-0.0630592,-0.0685262,-0.0710732
1413393216455760384,-1.05905,0.447552,1.33656,0.600161,-0.0272267,-0.799122,-0.0216619,-0.00671228,-0.00486434,0.00980273,-0.000539325,0.00736437,0.0253621,-0.0624994,-0.0760089,-0.06501
1413393216505760512,-1.05912,0.447353,1.33656,0.598345,-0.0278497,-0.800447,-0.0221865,0.00135445,0.00482913,0.00981931,-0.000531098,0.00741614,0.0255476,-0.0606307,-0.0751218,-0.0626753
1413393216555760384,-1.0588,0.44717,1.33661,0.597699,-0.0285906,-0.800877,-0.0231119,0.000798678,0.00978356,-0.0208961,-0.000550094,0.00749376,0.0257797,-0.0672636,-0.0837319,-0.0551535
1413393216605760512,-1.05805,0.446734,1.33643,0.597283,-0.0301874,-0.801131,-0.0230456,0.00188022,0.0191223,-0.0114737,-0.000586712,0.00755162,0.0259324,-0.0721203,-0.0848146,-0.0540493
1413393216655760384,-1.05802,0.447227,1.33714,0.597863,-0.0303412,-0.800662,-0.0240795,0.00207278,0.0072937,0.0256322,-0.000594543,0.00764748,0.0261098,-0.0711476,-0.0893861,-0.0546591
1413393216705760512,-1.0566,0.446687,1.33896,0.598429,-0.0304229,-0.800142,-0.0270171,0.020298,0.0188104,0.0371008,-0.000619974,0.0076402,0.0263066,-0.0670746,-0.085747,-0.0530853
1413393216755760384,-1.05567,0.446518,1.34064,0.598326,-0.0306685,-0.800074,-0.0307693,0.0132261,0.0164623,0.048868,-0.000601644,0.00769863,0.0265046,-0.0660427,-0.079269,-0.044224
1413393216805760512,-1.05408,0.445903,1.34381,0.598795,-0.0309723,-0.799591,-0.0337675,0.0186199,0.00455483,0.086775,-0.000623285,0.00779356,0.0266564,-0.0623546,-0.0758378,-0.0419599
1413393216855760384,-1.05273,0.445035,1.34883,0.599425,-0.0312166,-0.798988,-0.0365221,0.0264158,0.00362781,0.0917,-0.000622781,0.00782782,0.026862,-0.0628812,-0.0748098,-0.0401772
1413393216905760512,-1.04776,0.440236,1.35512,0.600975,-0.0327739,-0.797598,-0.0399162,0.0386516,-0.00931472,0.128718,-0.000646308,0.007902,0.0270255,-0.0662125,-0.0846652,-0.025288
1413393216955760384,-1.0418,0.436053,1.35817,0.600755,-0.0340081,-0.797458,-0.0447002,0.0469445,-0.0139513,0.144256,-0.000644604,0.00799534,0.0272281,-0.0706263,-0.0748902,-0.0326394
1413393217005760512,-1.03929,0.434114,1.36611,0.599361,-0.0344059,-0.798313,-0.0477484,0.0625365,-0.0234314,0.16323,-0.000662838,0.00804068,0.027397,-0.0640085,-0.0953851,-0.0160769
1413393217055760384,-1.03844,0.4334,1.37679,0.596563,-0.0344386,-0.800316,-0.0492061,0.0683789,-0.0478388,0.228825,-0.000674925,0.00806185,0.0275559,-0.0564828,-0.10458,-0.00324662
1413393217105760512,-1.03542,0.429967,1.39151,0.594689,-0.0356149,-0.801592,-0.0502762,0.0815585,-0.0520485,0.280175,-0.000739075,0.00816419,0.02774,-0.0569218,-0.12061,0.0160868
1413393217155760384,-1.03095,0.426613,1.40654,0.592907,-0.0369201,-0.802854,-0.0502395,0.0872437,-0.0732073,0.280058,-0.000730681,0.00818079,0.0279405,-0.0392214,-0.110407,0.026487
1413393217205760512,-1.02708,0.422799,1.41996,0.591556,-0.0383961,-0.803747,-0.0507732,0.0967481,-0.0881482,0.263601,-0.000713257,0.00822205,0.0281271,-0.0306639,-0.0968031,0.0330793
1413393217255760384,-1.0227,0.417202,1.43391,0.59127,-0.0394708,-0.80378,-0.0527294,0.0981705,-0.098711,0.242253,-0.000725659,0.00828109,0.0282691,-0.0283036,-0.0837161,0.0357582
1413393217305760512,-1.01687,0.410268,1.44399,0.590251,-0.0409229,-0.804338,-0.0544979,0.107469,-0.115248,0.203801,-0.000722739,0.0083653,0.0284684,-0.0296634,-0.0831707,0.0412864
1413393217355760384,-1.00922,0.402305,1.45089,0.589067,-0.042363,-0.805079,-0.0552499,0.114711,-0.135434,0.168074,-0.000723399,0.00841861,0.0286579,-0.0288886,-0.0763064,0.0519019
1413393217405760512,-1.00122,0.392633,1.45963,0.587745,-0.043484,-0.805901,-0.0564781,0.130726,-0.142701,0.154273,-0.00074263,0.0084463,0.0288337,-0.030454,-0.0743811,0.0566653
1413393217455760384,-0.994265,0.382519,1.46889,0.586497,-0.0449112,-0.806684,-0.0571486,0.13534,-0.169714,0.13954,-0.000707462,0.00853154,0.0290199,-0.0415777,-0.0703498,0.0500588
1413393217505760512,-0.985968,0.371204,1.47546,0.586062,-0.0451109,-0.806936,-0.0578814,0.134781,-0.192186,0.126602,-0.000719542,0.00851481,0.0291473,-0.0378326,-0.069618,0.0522186
1413393217555760384,-0.977068,0.359642,1.48007,0.585987,-0.0463212,-0.806846,-0.0589382,0.154331,-0.195587,0.10436,-0.000736181,0.00860036,0.0293385,-0.0421088,-0.0724709,0.052474
1413393217605760512,-0.968476,0.347939,1.48558,0.585861,-0.0463004,-0.806881,-0.0597228,0.1522,-0.227605,0.0866815,-0.000733312,0.00862706,0.0294736,-0.0423912,-0.0747331,0.0622108
1413393217655760384,-0.961348,0.335063,1.49445,0.585369,-0.0463887,-0.807219,-0.0599104,0.163141,-0.233412,0.0956958,-0.000754455,0.0086867,0.029673,-0.0425182,-0.0805752,0.0779939
1413393217705760512,-0.952838,0.322214,1.50025,0.58544,-0.0470801,-0.80709,-0.0604074,0.165656,-0.252896,0.14131,-0.00078353,0.00881036,0.0298364,-0.0499071,-0.0781789,0.076683
1413393217755760384,-0.944885,0.30686,1.51082,0.585404,-0.047167,-0.807103,-0.0605155,0.173501,-0.279804,0.188098,-0.000788642,0.00884379,0.0299975,-0.0438198,-0.0955681,0.0948445
1413393217805760512,-0.936528,0.291929,1.52014,0.585021,-0.0477464,-0.807343,-0.0605702,0.18195,-0.284776,0.219756,-0.000823583,0.00888915,0.0301291,-0.0333959,-0.0949776,0.101101
1413393217855760384,-0.927485,0.276251,1.52863,0.584742,-0.0487902,-0.807484,-0.0605476,0.187691,-0.299554,0.244742,-0.00082002,0.00895625,0.0302916,-0.0347267,-0.0918152,0.105665
1413393217905760512,-0.91816,0.260607,1.54205,0.584801,-0.0492757,-0.807453,-0.0600003,0.184061,-0.326478,0.283178,-0.00082268,0.00902596,0.0304269,-0.0333994,-0.087277,0.106839
1413393217955760384,-0.907349,0.241463,1.55786,0.585864,-0.0501976,-0.806599,-0.0603504,0.191991,-0.332822,0.301425,-0.000825272,0.00908501,0.030558,-0.0272458,-0.0775242,0.085078
1413393218005760512,-0.89707,0.221956,1.57327,0.585806,-0.0516296,-0.806603,-0.0596402,0.191956,-0.358665,0.274652,-0.000786722,0.00912515,0.0306825,-0.0192056,-0.0678541,0.066299
1413393218055760384,-0.88636,0.201342,1.58646,0.586553,-0.053991,-0.806078,-0.0572672,0.191879,-0.372786,0.217713,-0.000769592,0.00917789,0.0308356,-0.0174714,-0.0800649,0.0625743
1413393218105760512,-0.875038,0.180615,1.59535,0.586755,-0.0571023,-0.805917,-0.054371,0.196496,-0.363139,0.186279,-0.000828039,0.0092037,0.0310387,-0.0216867,-0.08942,0.072364
1413393218155760384,-0.862892,0.15882,1.60062,0.587378,-0.0614307,-0.805455,-0.0495627,0.196412,-0.381865,0.133259,-0.000796766,0.00925079,0.0312193,-0.0260142,-0.0880362,0.0606658
1413393218205760512,-0.851983,0.138684,1.60652,0.588137,-0.0652883,-0.804938,-0.0436681,0.210691,-0.376605,0.0840867,-0.000766635,0.00929849,0.031406,-0.0281757,-0.0920751,0.0580636
1413393218255760384,-0.840964,0.118484,1.60959,0.587725,-0.0706006,-0.805075,-0.0380694,0.234056,-0.344278,0.0355158,-0.000807563,0.00933488,0.0315515,-0.0252272,-0.0916706,0.0561229
1413393218305760512,-0.829727,0.10052,1.61022,0.586772,-0.0743021,-0.805639,-0.0335202,0.224926,-0.346446,-0.000626504,-0.000725134,0.00936319,0.0317143,-0.0315225,-0.0695911,0.046427
1413393218355760384,-0.817457,0.0830005,1.60918,0.586739,-0.0743236,-0.805665,-0.0334343,0.235809,-0.320793,-0.0405473,-0.000732611,0.00940792,0.0318781,-0.0375632,-0.0741341,0.0396225
1413393218405760512,-0.805209,0.0663427,1.60762,0.58732,-0.0721055,-0.805218,-0.0384625,0.242566,-0.288396,-0.0630275,-0.000746506,0.00947895,0.0320472,-0.0499044,-0.0734336,0.0255593
1413393218455760384,-0.793023,0.0506051,1.60303,0.587114,-0.0690899,-0.805351,-0.0439678,0.241755,-0.296074,-0.0907037,-0.000723104,0.00950783,0.0321991,-0.0467886,-0.0901674,0.0389964
1413393218505760512,-0.77851,0.0357302,1.59359,0.588047,-0.0654899,-0.804671,-0.0491593,0.250707,-0.280474,-0.082776,-0.000737221,0.00955772,0.0323444,-0.049956,-0.0897605,0.0242763
1413393218555760384,-0.765273,0.0210969,1.58655,0.588268,-0.0624164,-0.804375,-0.055013,0.263028,-0.26234,-0.0767833,-0.000762656,0.00961767,0.0325361,-0.0576967,-0.100644,0.0280569
1413393218605760512,-0.752049,0.00634326,1.58211,0.588981,-0.0597331,-0.803797,-0.0586895,0.264113,-0.290431,-0.0678401,-0.000754106,0.00968879,0.0326408,-0.0524427,-0.109242,0.0256942
1413393218655760384,-0.738129,-0.00860416,1.57774,0.589603,-0.057679,-0.803288,-0.061395,0.278473,-0.283294,-0.065049,-0.000745638,0.00973823,0.0327774,-0.0522871,-0.115686,0.0164447
1413393218705760512,-0.724119,-0.0249204,1.57572,0.589519,-0.058173,-0.803252,-0.0622101,0.287452,-0.281406,-0.0498216,-0.000782074,0.00979656,0.0329391,-0.0541446,-0.123333,0.0284581
1413393218755760384,-0.709587,-0.0411537,1.57288,0.587928,-0.056841,-0.804417,-0.0634376,0.286932,-0.310224,-0.0443342,-0.00076482,0.00983125,0.0330932,-0.0590379,-0.145864,0.0210485
1413393218805760512,-0.695259,-0.0576144,1.57043,0.58365,-0.057692,-0.807559,-0.0622271,0.299791,-0.298573,-0.0392196,-0.000792935,0.00988498,0.0332311,-0.060182,-0.160569,0.0205835
1413393218855760384,-0.680815,-0.0738232,1.56903,0.576925,-0.0616645,-0.812363,-0.0584917,0.297002,-0.298242,-0.0301664,-0.000820101,0.00989744,0.0333862,-0.056647,-0.170188,0.0125137
1413393218905760512,-0.666603,-0.0898806,1.56385,0.570047,-0.0642627,-0.817265,-0.0547258,0.275547,-0.314782,-0.0310095,-0.000749567,0.00992483,0.0335415,-0.0525026,-0.157548,-0.00435625
1413393218955760384,-0.653557,-0.105334,1.56314,0.564148,-0.0665527,-0.821348,-0.0519175,0.257968,-0.290682,-0.0106652,-0.000786587,0.00992082,0.0336085,-0.0395289,-0.149196,0.0162833
1413393219005760512,-0.641825,-0.120707,1.56417,0.560389,-0.0688081,-0.82383,-0.0503432,0.228735,-0.279237,0.00654213,-0.000774514,0.00994219,0.0337864,-0.0395086,-0.147301,0.0303644
1413393219055760384,-0.631802,-0.136068,1.56614,0.558567,-0.0697456,-0.825092,-0.0486073,0.193973,-0.279245,0.0262283,-0.000772864,0.0100091,0.033958,-0.0461737,-0.15647,0.0319771
1413393219105760512,-0.62345,-0.151715,1.5695,0.558704,-0.0693164,-0.824999,-0.0492122,0.169838,-0.260813,0.0534691,-0.000753302,0.0100167,0.0340865,-0.0372921,-0.16081,0.0355156
1413393219155760384,-0.616156,-0.165791,1.57419,0.55984,-0.069795,-0.824222,-0.0486422,0.144255,-0.247639,0.065474,-0.000760688,0.0100887,0.0342603,-0.04826,-0.169499,0.0413743
1413393219205760512,-0.6096,-0.178739,1.57714,0.560549,-0.0692859,-0.823789,-0.0485545,0.117798,-0.244116,0.0840915,-0.000743386,0.0101715,0.0344203,-0.0541202,-0.170655,0.0333083
1413393219255760384,-0.604304,-0.191278,1.58223,0.562071,-0.0685699,-0.822811,-0.0485518,0.0983097,-0.228501,0.105148,-0.000739117,0.0101867,0.0345546,-0.043985,-0.17625,0.0351436
1413393219305760512,-0.60009,-0.203258,1.58811,0.563252,-0.0680143,-0.822054,-0.0484725,0.0712443,-0.204684,0.112482,-0.000757187,0.0102576,0.03468,-0.0379213,-0.183831,0.0312204
1413393219355760384,-0.597078,-0.214391,1.59424,0.563561,-0.0675467,-0.821896,-0.0482057,0.0386805,-0.194606,0.118537,-0.00074897,0.0102649,0.0348033,-0.0278256,-0.18848,0.0253343
1413393219405760512,-0.595498,-0.225316,1.59941,0.564282,-0.0678333,-0.821443,-0.0470821,0.0180488,-0.176023,0.110357,-0.000739734,0.0103019,0.0349417,-0.0241563,-0.185337,0.0264937
1413393219455760384,-0.595601,-0.236523,1.60182,0.565546,-0.067834,-0.820532,-0.0477816,-0.0139076,-0.153219,0.0623345,-0.00071448,0.0103392,0.035069,-0.0221764,-0.183701,0.0271783
1413393219505760512,-0.59704,-0.247985,1.60183,0.566607,-0.0680937,-0.819729,-0.0486304,-0.0374226,-0.143291,0.0175154,-0.000660872,0.0103468,0.0352272,-0.0203224,-0.181524,0.0280411
1413393219555760384,-0.598819,-0.261557,1.60108,0.568429,-0.0684505,-0.818386,-0.0494748,-0.056414,-0.127199,-0.0136969,-0.000665932,0.0104013,0.035367,-0.0290016,-0.19646,0.039856
1413393219605760512,-0.600895,-0.273842,1.59892,0.570213,-0.0690381,-0.817004,-0.0509435,-0.0608493,-0.115282,-0.014562,-0.000644848,0.0104103,0.0354787,-0.034388,-0.196051,0.0307375
1413393219655760384,-0.603509,-0.284511,1.59963,0.572644,-0.0696192,-0.815211,-0.0516003,-0.0685791,-0.109187,0.0224108,-0.00062535,0.0104491,0.0356085,-0.0459274,-0.200307,0.0188932
1413393219705760512,-0.606877,-0.293232,1.6023,0.575628,-0.0695836,-0.813002,-0.0532834,-0.0801998,-0.0931874,0.0855876,-0.000605117,0.0105116,0.0357619,-0.062023,-0.200198,0.0134516
1413393219755760384,-0.611923,-0.300855,1.60823,0.578788,-0.0688787,-0.810676,-0.055363,-0.101131,-0.083561,0.158388,-0.000607719,0.0105248,0.0358658,-0.0618555,-0.207629,0.000768671
1413393219805760512,-0.616275,-0.306879,1.61967,0.581658,-0.0671687,-0.808549,-0.0584055,-0.0850894,-0.0780222,0.210505,-0.000616583,0.0105133,0.0359117,-0.0443627,-0.217573,0.00361808
1413393219855760384,-0.621122,-0.315119,1.63287,0.582742,-0.0673025,-0.807628,-0.0601699,-0.0808518,-0.0718487,0.319339,-0.000607529,0.0106106,0.0361019,-0.0612444,-0.220315,-0.0147929
1413393219905760512,-0.625158,-0.321895,1.64728,0.584156,-0.0664441,-0.80651,-0.0623634,-0.0831177,-0.0724711,0.335764,-0.00058263,0.0106291,0.0362166,-0.0622082,-0.219525,-0.0323573
1413393219955760384,-0.629972,-0.329302,1.66182,0.585257,-0.064998,-0.805613,-0.0650945,-0.0862601,-0.0649488,0.33362,-0.000592209,0.0106801,0.0363642,-0.0720061,-0.23073,-0.0396976
1413393220005760512,-0.627586,-0.341672,1.66652,0.589262,-0.072951,-0.802089,-0.0640499,-0.0766119,-0.0637206,0.293606,-0.000512384,0.0107162,0.0364466,-0.0876985,-0.122402,-0.087062
1413393220055760384,-0.635811,-0.340671,1.71523,0.589955,-0.0693865,-0.801628,-0.0673238,-0.0629212,-0.0743464,0.239992,-0.000500664,0.0107356,0.0365637,-0.091768,-0.186825,-0.097472
1413393220105760512,-0.63848,-0.345062,1.72479,0.590597,-0.0692303,-0.801111,-0.0680043,-0.0574633,-0.0700445,0.217329,-0.00052433,0.0107826,0.0367326,-0.085268,-0.184644,-0.0845497
1413393220155760384,-0.641282,-0.35153,1.73512,0.591295,-0.0692677,-0.800485,-0.0692602,-0.0497584,-0.0815989,0.196404,-0.000491078,0.0107977,0.0368189,-0.0754137,-0.18424,-0.109516
1413393220205760512,-0.643695,-0.356594,1.74618,0.591795,-0.0686668,-0.800064,-0.070439,-0.0464715,-0.0870548,0.218819,-0.000493258,0.0108337,0.0369748,-0.0756406,-0.189928,-0.100989
1413393220255760384,-0.645479,-0.362658,1.75422,0.592438,-0.0692889,-0.799479,-0.0710675,-0.036152,-0.0833227,0.216324,-0.000517314,0.0108627,0.0371036,-0.0665988,-0.208632,-0.101623
1413393220305760512,-0.64705,-0.369111,1.76874,0.592706,-0.0683696,-0.799201,-0.072824,-0.0256974,-0.103723,0.217564,-0.000521056,0.0108759,0.0371791,-0.0614935,-0.212806,-0.100841
1413393220355760384,-0.647665,-0.377139,1.77753,0.593409,-0.0686265,-0.798627,-0.0731524,-0.0180987,-0.105739,0.218796,-0.000504711,0.0108869,0.0372855,-0.0632245,-0.219384,-0.10913
1413393220405760512,-0.648452,-0.383477,1.78947,0.593315,-0.0690214,-0.798612,-0.0737078,-0.00721494,-0.101404,0.232297,-0.000533126,0.0109032,0.0374367,-0.0684327,-0.221103,-0.0917721
1413393220455760384,-0.648875,-0.394877,1.79487,0.592964,-0.0698913,-0.798662,-0.0751553,0.00428942,-0.121913,0.227946,-0.000521628,0.0109479,0.037506,-0.085633,-0.24129,-0.106544
1413393220505760512,-0.646821,-0.408939,1.80212,0.591718,-0.0715593,-0.799366,-0.075919,0.00844145,-0.123418,0.218167,-0.000479348,0.0109985,0.0376227,-0.106034,-0.252834,-0.119505
1413393220555760384,-0.645722,-0.417858,1.8117,0.590287,-0.0727122,-0.800305,-0.0760658,0.0205726,-0.118199,0.182163,-0.000530172,0.0110702,0.0377664,-0.115785,-0.248306,-0.107345
1413393220605760512,-0.643071,-0.431165,1.81644,0.590199,-0.0746311,-0.800078,-0.0772717,0.0110325,-0.127671,0.127023,-0.000468386,0.0110612,0.0378529,-0.126365,-0.254794,-0.130074
1413393220655760384,-0.642168,-0.438319,1.81971,0.590933,-0.0744219,-0.799558,-0.0772503,0.0105219,-0.130028,0.0749132,-0.000472507,0.0111312,0.0379817,-0.138572,-0.257857,-0.129065
1413393220705760512,-0.640751,-0.444445,1.82235,0.591582,-0.0752381,-0.79904,-0.0768442,0.0265668,-0.115783,0.0249028,-0.000517219,0.0111763,0.0381049,-0.141566,-0.249893,-0.12692
1413393220755760384,-0.63974,-0.452363,1.82298,0.591578,-0.0770249,-0.799086,-0.0745998,0.0146895,-0.135862,-0.023766,-0.000481644,0.0112189,0.0382122,-0.151304,-0.257021,-0.132415
1413393220805760512,-0.638725,-0.459763,1.82145,0.589927,-0.0794552,-0.800413,-0.0707908,0.0250088,-0.129423,-0.0163995,-0.000479917,0.0112313,0.0383182,-0.153199,-0.257228,-0.139596
1413393220855760384,-0.637515,-0.468166,1.81977,0.588852,-0.0830677,-0.801116,-0.0675799,0.0350772,-0.104818,0.0348149,-0.000499815,0.011274,0.0384467,-0.15482,-0.265557,-0.147176
1413393220905760512,-0.635919,-0.477049,1.82595,0.588153,-0.0846446,-0.801603,-0.0659147,0.0364224,-0.129405,0.0847479,-0.000484014,0.0112907,0.038548,-0.155061,-0.277238,-0.153065
1413393220955760384,-0.634809,-0.485188,1.83179,0.587151,-0.0855273,-0.802289,-0.0653615,0.0337005,-0.103354,0.189931,-0.00049052,0.0113175,0.0386282,-0.156154,-0.293454,-0.145709
1413393221005760512,-0.632651,-0.492271,1.84271,0.587651,-0.086417,-0.80167,-0.0672591,0.0349527,-0.0647064,0.218648,-0.000524809,0.011382,0.0387413,-0.170696,-0.307731,-0.164343
1413393221055760384,-0.630869,-0.499941,1.85468,0.587052,-0.086726,-0.801916,-0.0691354,0.0292542,-0.0750147,0.249888,-0.000501055,0.011424,0.0388751,-0.168038,-0.313797,-0.175398
1413393221105760512,-0.629022,-0.508941,1.86962,0.586134,-0.0869073,-0.802431,-0.0707036,0.0243746,-0.0479,0.267035,-0.000502876,0.0114996,0.0389655,-0.172919,-0.33602,-0.181972
1413393221155760384,-0.629234,-0.512008,1.87674,0.585666,-0.0876069,-0.802496,-0.0729473,0.0269948,-0.0204773,0.281728,-0.000524268,0.0114703,0.0390705,-0.153761,-0.327287,-0.170168
1413393221205760512,-0.62899,-0.516224,1.87002,0.584379,-0.0875556,-0.803212,-0.0754089,0.011617,-0.0312502,0.283216,-0.000492972,0.0114967,0.0391449,-0.149486,-0.335796,-0.180718
1413393221255760384,-0.627859,-0.521153,1.88434,0.583106,-0.0874785,-0.804012,-0.0768189,0.0172431,-0.0157858,0.27801,-0.000495685,0.0115457,0.0392838,-0.153874,-0.342967,-0.170008
1413393221305760512,-0.627062,-0.522498,1.89758,0.580998,-0.0869874,-0.805315,-0.0796496,0.0199589,-0.00284037,0.261267,-0.000521168,0.0115693,0.0393758,-0.151403,-0.365945,-0.198053
1413393221355760384,-0.625811,-0.526405,1.92336,0.57929,-0.0870586,-0.80644,-0.0806151,0.00086545,-0.0138933,0.299608,-0.000527971,0.0116228,0.0394785,-0.171766,-0.390701,-0.213437
1413393221405760512,-0.629297,-0.525065,1.93855,0.577292,-0.0857871,-0.807875,-0.0819282,-0.016198,0.00833035,0.308862,-0.000575249,0.0116925,0.0396126,-0.181074,-0.40576,-0.182936
1413393221455760384,-0.632501,-0.518896,1.95847,0.575968,-0.0836809,-0.808874,-0.0835588,-0.0325129,0.037439,0.291111,-0.000608552,0.0116943,0.0396765,-0.164362,-0.395324,-0.153028
1413393221505760512,-0.634519,-0.51769,1.96762,0.574898,-0.0829165,-0.809576,-0.0848759,-0.0505905,0.0392855,0.232122,-0.000583608,0.0117648,0.0397865,-0.166907,-0.394946,-0.166133
1413393221555760384,-0.636535,-0.51256,1.98927,0.573399,-0.0802089,-0.810707,-0.0868051,-0.0582217,0.0470845,0.186663,-0.000617238,0.0118289,0.0399099,-0.160729,-0.383921,-0.151677
1413393221605760512,-0.639823,-0.508856,1.99759,0.572962,-0.0792538,-0.810955,-0.0882352,-0.0810104,0.0457771,0.164694,-0.000614874,0.0117977,0.0400364,-0.137794,-0.368903,-0.143902
1413393221655760384,-0.64497,-0.507339,2.00585,0.573172,-0.0783046,-0.810779,-0.0893357,-0.105352,0.027912,0.169782,-0.000602493,0.01191,0.0401468,-0.147213,-0.372173,-0.151023
1413393221705760512,-0.650602,-0.507194,2.01378,0.575862,-0.0778224,-0.808806,-0.0903258,-0.113621,0.0322971,0.178948,-0.000639344,0.0119605,0.0402509,-0.135849,-0.369442,-0.153992
1413393221755760384,-0.658968,-0.501565,2.02401,0.578773,-0.0767133,-0.806945,-0.0893127,-0.122005,0.0244406,0.170556,-0.000663693,0.0120095,0.0403886,-0.128005,-0.370507,-0.12589
1413393221805760512,-0.665746,-0.500527,2.03243,0.581914,-0.0755702,-0.804811,-0.0891384,-0.129089,0.00610795,0.17564,-0.000641118,0.0120582,0.040502,-0.127549,-0.365531,-0.134396
1413393221855760384,-0.67258,-0.499178,2.04085,0.583552,-0.0746972,-0.803682,-0.0893485,-0.124995,0.021991,0.166453,-0.000682599,0.0120921,0.0406107,-0.115592,-0.357699,-0.129357
1413393221905760512,-0.679982,-0.4992,2.05073,0.584594,-0.0748498,-0.802981,-0.0887077,-0.131477,0.000306384,0.155641,-0.000658696,0.0121651,0.0407127,-0.114482,-0.357418,-0.133249
1413393221955760384,-0.687248,-0.499214,2.05924,0.586023,-0.0746385,-0.80213,-0.0871429,-0.131556,-0.00258823,0.131437,-0.000638484,0.01222,0.0408342,-0.104729,-0.350477,-0.121401
1413393222005760512,-0.694005,-0.498766,2.06559,0.585883,-0.0748246,-0.802265,-0.0866809,-0.123702,0.0130479,0.0781793,-0.000670265,0.0122504,0.0409134,-0.0942868,-0.354279,-0.110358
1413393222055760384,-0.70055,-0.49765,2.06941,0.586488,-0.0749044,-0.801926,-0.085652,-0.119811,-0.00351669,0.0135041,-0.000674942,0.0122537,0.041015,-0.0792871,-0.346633,-0.0883923
1413393222105760512,-0.706755,-0.49761,2.06879,0.58718,-0.0746465,-0.801602,-0.0841551,-0.12139,-0.0107668,-0.0495648,-0.000677803,0.0122968,0.0411368,-0.0807484,-0.361012,-0.0840189
1413393222155760384,-0.712645,-0.498203,2.06572,0.587261,-0.0740439,-0.801602,-0.0841189,-0.11043,0.00370256,-0.10491,-0.000693767,0.0123591,0.0412313,-0.0808637,-0.358125,-0.0960298
1413393222205760512,-0.717949,-0.498232,2.05896,0.587178,-0.0737574,-0.801724,-0.083789,-0.102337,-0.00326369,-0.165604,-0.000694523,0.0123868,0.0413425,-0.0859351,-0.357161,-0.0981749
1413393222255760384,-0.722799,-0.49871,2.04963,0.586202,-0.0735355,-0.802556,-0.0828504,-0.0988404,-0.0106057,-0.217719,-0.000675115,0.0124602,0.0414592,-0.0921567,-0.35671,-0.100786
1413393222305760512,-0.727606,-0.499257,2.03539,0.583891,-0.0727887,-0.804286,-0.0830551,-0.095734,0.00586223,-0.251006,-0.000713514,0.0124578,0.0415947,-0.0813235,-0.369381,-0.0788591
1413393222355760384,-0.732176,-0.499162,2.02355,0.579869,-0.0733273,-0.807203,-0.0824561,-0.101804,-0.00641182,-0.248777,-0.000685094,0.0125031,0.0416574,-0.0902111,-0.357561,-0.0964727
1413393222405760512,-0.736247,-0.499307,2.01217,0.575935,-0.0733114,-0.810138,-0.0812477,-0.106774,-0.0149176,-0.230761,-0.00063798,0.0125675,0.0417575,-0.110535,-0.325028,-0.137415
1413393222455760384,-0.74198,-0.499387,2.00119,0.572336,-0.0724783,-0.812647,-0.0823683,-0.114439,-0.0082646,-0.204351,-0.000654083,0.012526,0.0418005,-0.0776351,-0.344608,-0.111811
1413393222505760512,-0.748296,-0.500182,1.99158,0.569681,-0.072182,-0.814627,-0.0814641,-0.146756,-0.0216076,-0.173779,-0.000646609,0.0125877,0.0419325,-0.0849478,-0.343953,-0.112456
1413393222555760384,-0.756722,-0.500568,1.98528,0.568858,-0.074391,-0.815327,-0.0781559,-0.159763,-0.0300708,-0.112734,-0.000666027,0.0126182,0.0420555,-0.0804364,-0.353214,-0.101289
1413393222605760512,-0.764844,-0.501674,1.98039,0.567496,-0.0743052,-0.81633,-0.0776725,-0.179374,-0.0142618,-0.0818645,-0.000660835,0.0126507,0.042145,-0.0791591,-0.352525,-0.104192
1413393222655760384,-0.772573,-0.503601,1.97774,0.566377,-0.0747524,-0.817169,-0.0765838,-0.203333,-0.0162355,-0.0245097,-0.000654305,0.0126847,0.042206,-0.0696183,-0.345825,-0.118362
1413393222705760512,-0.78323,-0.504468,1.97622,0.566422,-0.0729284,-0.817196,-0.0777066,-0.226985,-0.015421,0.0240895,-0.000661571,0.0127081,0.0423187,-0.0772212,-0.354036,-0.11069
1413393222755760384,-0.795682,-0.50544,1.97964,0.564886,-0.0731582,-0.818353,-0.0764849,-0.250123,-0.00272136,0.0607872,-0.000688373,0.0127785,0.0424265,-0.088697,-0.379758,-0.0900258
1413393222805760512,-0.812004,-0.506719,1.9919,0.562331,-0.0716627,-0.820241,-0.0765081,-0.275043,-0.000355645,0.111774,-0.000727621,0.0128035,0.0424691,-0.0796177,-0.420255,-0.0592181
1413393222855760384,-0.826868,-0.50622,2.00066,0.560215,-0.0713921,-0.821799,-0.0755591,-0.287705,0.00477609,0.144049,-0.0007391,0.0128985,0.0426153,-0.083282,-0.420079,-0.0653906
1413393222905760512,-0.841893,-0.506037,2.00863,0.559267,-0.0711632,-0.822615,-0.0738991,-0.307592,0.0126997,0.187391,-0.0007517,0.0129319,0.0427088,-0.086074,-0.423251,-0.0686564
1413393222955760384,-0.857975,-0.505036,2.01908,0.557636,-0.0706642,-0.823858,-0.0728476,-0.336912,0.0182826,0.230559,-0.000754175,0.0129476,0.0427954,-0.0777445,-0.421528,-0.0885631
1413393223005760512,-0.87494,-0.50357,2.03209,0.558793,-0.069332,-0.823175,-0.0729801,-0.356709,0.0252555,0.242132,-0.000764199,0.0129821,0.0428606,-0.0923937,-0.40603,-0.0779587
1413393223055760384,-0.893732,-0.501694,2.04617,0.560725,-0.0680968,-0.822027,-0.0722659,-0.391137,0.0281671,0.262656,-0.000745539,0.0130604,0.042963,-0.0990162,-0.391926,-0.0831177
1413393223105760512,-0.914364,-0.499304,2.05943,0.562455,-0.0673789,-0.820994,-0.0712379,-0.417728,0.0412823,0.263986,-0.000775896,0.0131046,0.0430487,-0.0981152,-0.39664,-0.091166
1413393223155760384,-0.93563,-0.496651,2.07266,0.563721,-0.0659312,-0.820144,-0.0723615,-0.443681,0.0440384,0.266412,-0.000765207,0.0131385,0.0431392,-0.0832416,-0.387071,-0.0900576
1413393223205760512,-0.958448,-0.49352,2.08724,0.565156,-0.0636902,-0.819235,-0.0734637,-0.464152,0.0376225,0.270608,-0.00077115,0.0131587,0.0432485,-0.0797814,-0.372609,-0.0794816
1413393223255760384,-0.981911,-0.490664,2.09794,0.565887,-0.0623432,-0.818734,-0.0745637,-0.479287,0.047955,0.226199,-0.00077459,0.0131652,0.0433478,-0.0698427,-0.367756,-0.0688795
1413393223305760512,-1.0064,-0.487156,2.10926,0.567431,-0.0620022,-0.817731,-0.0741198,-0.49519,0.0351293,0.186923,-0.00079317,0.0132123,0.043448,-0.0671889,-0.362406,-0.0660232
1413393223355760384,-1.0312,-0.483851,2.11734,0.568365,-0.0611604,-0.817105,-0.0745651,-0.506625,0.035515,0.102312,-0.000788607,0.0132633,0.0435409,-0.0691406,-0.355286,-0.0593163
1413393223405760512,-1.05618,-0.480746,2.12019,0.570013,-0.0605092,-0.815995,-0.0746782,-0.509457,0.0343039,-0.000268883,-0.000780723,0.0132985,0.0435873,-0.0659863,-0.343709,-0.0552676
1413393223455760384,-1.08159,-0.477459,2.11751,0.571975,-0.0602242,-0.814575,-0.075403,-0.517388,0.0356025,-0.112306,-0.000790812,0.0133237,0.0437296,-0.0821397,-0.340465,-0.0524012
1413393223505760512,-1.1068,-0.474295,2.10907,0.574626,-0.0592224,-0.812701,-0.0762599,-0.520362,0.0357143,-0.206919,-0.000804735,0.0133548,0.0437897,-0.089497,-0.340579,-0.06058
1413393223555760384,-1.13218,-0.471551,2.09598,0.577327,-0.0595921,-0.810761,-0.0762175,-0.52768,0.0315139,-0.281708,-0.0008172,0.013384,0.0438801,-0.0960283,-0.332006,-0.0576901
1413393223605760512,-1.1581,-0.469701,2.08076,0.579809,-0.0599282,-0.808864,-0.0772636,-0.517226,0.0331553,-0.350641,-0.000819358,0.0134341,0.0439671,-0.0955885,-0.326449,-0.0670497
1413393223655760384,-1.18403,-0.467678,2.06307,0.58156,-0.0601435,-0.807445,-0.0787699,-0.519225,0.0292065,-0.382297,-0.000806359,0.0135056,0.0440715,-0.0968412,-0.323185,-0.0569655
1413393223705760512,-1.20964,-0.465779,2.04513,0.582261,-0.0617624,-0.806737,-0.079588,-0.515608,0.0193663,-0.359963,-0.000826513,0.0134949,0.0441378,-0.0898457,-0.324886,-0.0539656
1413393223755760384,-1.2354,-0.464961,2.02868,0.582857,-0.062952,-0.8061,-0.0807305,-0.519703,0.00454672,-0.286116,-0.000818431,0.0135563,0.0442541,-0.0993969,-0.317337,-0.047621
1413393223805760512,-1.26015,-0.46489,2.01527,0.583787,-0.0647869,-0.80521,-0.081443,-0.512588,-0.0195934,-0.230995,-0.000810394,0.0135989,0.0443062,-0.09664,-0.316645,-0.0427768
1413393223855760384,-1.28492,-0.466011,2.00521,0.582382,-0.0666123,-0.805983,-0.0823812,-0.488883,-0.0361347,-0.136371,-0.000831414,0.0136088,0.0444252,-0.0919731,-0.332956,-0.0431652
1413393223905760512,-1.30878,-0.468256,1.99953,0.582455,-0.0676455,-0.805549,-0.0852118,-0.502462,-0.0359239,-0.072931,-0.000855498,0.0136257,0.0444806,-0.0843879,-0.333642,-0.0386964
1413393223955760384,-1.33391,-0.471464,1.99814,0.581763,-0.0688911,-0.805775,-0.0867896,-0.499511,-0.0559555,-0.01825,-0.000844441,0.0136389,0.0445531,-0.0847858,-0.33165,-0.0531971
1413393224005760512,-1.3588,-0.474834,1.99442,0.58265,-0.0702538,-0.80489,-0.0879578,-0.501536,-0.0697497,0.0162604,-0.000790493,0.0137699,0.0448233,-0.126267,-0.289236,-0.081969
1413393224055760384,-1.3848,-0.478779,1.9948,0.582047,-0.0725901,-0.805081,-0.0883026,-0.507464,-0.0829786,-0.00168216,-0.000742817,0.0136894,0.044795,-0.0912806,-0.295221,-0.0844878
1413393224105760512,-1.40995,-0.484785,1.99432,0.583384,-0.0744463,-0.803885,-0.0888315,-0.506892,-0.107121,-0.0563665,-0.000724702,0.0136036,0.0447988,-0.0590489,-0.309691,-0.0741912
1413393224155760384,-1.43494,-0.491027,1.98895,0.584051,-0.0756084,-0.803182,-0.089819,-0.50523,-0.121147,-0.0911545,-0.000689695,0.0136112,0.044906,-0.0663061,-0.309663,-0.0871648
1413393224205760512,-1.43175,-0.489442,1.84416,0.587717,-0.0833739,-0.799946,-0.0878891,-0.499078,-0.134308,-0.157745,-0.000510789,0.0136829,0.0451135,-0.150005,-0.113932,-0.178858
1413393224255760384,-1.45649,-0.493168,1.85132,0.589286,-0.0855347,-0.798468,-0.0887417,-0.502339,-0.142629,-0.186344,-0.00047521,0.0137117,0.0451615,-0.149642,-0.0904417,-0.177488
1413393224305760512,-1.48014,-0.498825,1.84048,0.591042,-0.0875808,-0.79696,-0.0886254,-0.496168,-0.149709,-0.239304,-0.00049717,0.0137552,0.0452181,-0.145794,-0.103434,-0.160082
1413393224355760384,-1.50434,-0.506351,1.82269,0.590943,-0.0866839,-0.79698,-0.0899816,-0.500822,-0.150804,-0.28147,-0.000522714,0.0137964,0.0452926,-0.138886,-0.124186,-0.145895
1413393224405760512,-1.52894,-0.514616,1.80926,0.590349,-0.088323,-0.797059,-0.0915687,-0.491831,-0.147393,-0.321239,-0.00049516,0.0138789,0.0453901,-0.143278,-0.135232,-0.138252
1413393224455760384,-1.55469,-0.522528,1.79291,0.5911,-0.0918634,-0.795996,-0.0924839,-0.477675,-0.155452,-0.371335,-0.000481328,0.0139146,0.0455012,-0.127315,-0.150328,-0.130158
1413393224505760512,-1.5779,-0.529772,1.77012,0.591201,-0.0966537,-0.795224,-0.0935915,-0.449699,-0.144919,-0.417274,-0.000532476,0.0139874,0.0455824,-0.135918,-0.171172,-0.133536
1413393224555760384,-1.60079,-0.536917,1.74552,0.590881,-0.103799,-0.794542,-0.0937519,-0.437894,-0.145437,-0.451081,-0.000511111,0.0140184,0.0457344,-0.1333,-0.171718,-0.149102
1413393224605760512,-1.62208,-0.544382,1.72344,0.591897,-0.111283,-0.792608,-0.0951142,-0.421439,-0.137557,-0.470087,-0.00050876,0.0140237,0.045761,-0.134462,-0.177643,-0.165008
1413393224655760384,-1.64344,-0.551104,1.7001,0.592069,-0.119926,-0.791029,-0.0966674,-0.407853,-0.123085,-0.427132,-0.000538155,0.0140758,0.0458536,-0.143545,-0.171106,-0.184909
1413393224705760512,-1.66203,-0.557691,1.68031,0.590063,-0.128622,-0.79095,-0.0983884,-0.392307,-0.132791,-0.42414,-0.000477371,0.0141143,0.0459579,-0.13362,-0.155804,-0.217496
1413393224755760384,-1.68247,-0.563234,1.65962,0.587993,-0.137647,-0.790784,-0.099895,-0.395069,-0.117429,-0.404229,-0.000470803,0.0141442,0.0460272,-0.133877,-0.142463,-0.211307
1413393224805760512,-1.70125,-0.569327,1.63999,0.585673,-0.146262,-0.790463,-0.10375,-0.363128,-0.105658,-0.381204,-0.000455669,0.014223,0.0461101,-0.148987,-0.132793,-0.225686
1413393224855760384,-1.71924,-0.574469,1.62599,0.582824,-0.154931,-0.79054,-0.106582,-0.363676,-0.118894,-0.329866,-0.000416192,0.0143171,0.0462607,-0.129612,-0.120406,-0.214503
1413393224905760512,-1.73751,-0.57911,1.61364,0.581228,-0.160824,-0.790077,-0.109947,-0.366359,-0.108033,-0.273703,-0.000403516,0.0143264,0.0462974,-0.0961124,-0.128134,-0.208879
1413393224955760384,-1.75454,-0.583239,1.60309,0.578843,-0.166878,-0.790213,-0.112501,-0.332151,-0.0926074,-0.21142,-0.000439168,0.0143762,0.0463821,-0.0829654,-0.130676,-0.179939
1413393225005760512,-1.77114,-0.586742,1.5953,0.576591,-0.170075,-0.790625,-0.116319,-0.328658,-0.098389,-0.138745,-0.000495573,0.0143672,0.0464493,-0.069634,-0.154122,-0.141548
1413393225055760384,-1.78777,-0.589831,1.59261,0.574117,-0.171619,-0.791527,-0.120089,-0.317942,-0.0777834,-0.120847,-0.000529833,0.0143988,0.0465264,-0.0685304,-0.157921,-0.110397
1413393225105760512,-1.8035,-0.592534,1.59188,0.5726,-0.173835,-0.791687,-0.123054,-0.296216,-0.0514791,-0.0480128,-0.000559294,0.0144419,0.0466074,-0.0591369,-0.160633,-0.111969
1413393225155760384,-1.81846,-0.595441,1.58926,0.571966,-0.174894,-0.791491,-0.125734,-0.288238,-0.0632951,-0.0636688,-0.00054961,0.0144732,0.0466926,-0.0472057,-0.165562,-0.0925556
1413393225205760512,-1.83281,-0.598733,1.58662,0.571362,-0.17673,-0.791502,-0.125849,-0.277381,-0.0488954,-0.0492055,-0.000558876,0.0144975,0.0467875,-0.0442252,-0.169558,-0.102496
1413393225255760384,-1.84732,-0.601517,1.58227,0.57035,-0.177522,-0.79171,-0.127997,-0.260459,-0.0395544,-0.0457432,-0.000554824,0.0144561,0.0468395,-0.0190937,-0.167691,-0.0846205
1413393225305760512,-1.86075,-0.603779,1.57879,0.569427,-0.179752,-0.791708,-0.128998,-0.2584,-0.0414242,-0.0755506,-0.000521558,0.014482,0.0469466,-0.0307544,-0.160047,-0.0779383
1413393225355760384,-1.87432,-0.605409,1.5748,0.56918,-0.182748,-0.790753,-0.131708,-0.235177,-0.0220976,-0.0591738,-0.000548339,0.0144437,0.0470056,-0.0165189,-0.167918,-0.061824
1413393225405760512,-1.88599,-0.607581,1.57202,0.568269,-0.189155,-0.789722,-0.132782,-0.236595,-0.00964782,-0.0385409,-0.000535026,0.0144437,0.0470862,-0.0315136,-0.183351,-0.0933668
1413393225455760384,-1.89758,-0.60806,1.56804,0.567083,-0.196491,-0.788466,-0.134644,-0.244146,0.00636033,-0.0275738,-0.00058173,0.0144131,0.0471861,-0.0228509,-0.213349,-0.097889
1413393225505760512,-1.90999,-0.606182,1.56621,0.566975,-0.205881,-0.785769,-0.136823,-0.226719,0.0462114,-0.00979016,-0.00058184,0.0144208,0.0471919,-0.0577324,-0.18961,-0.112963
1413393225555760384,-1.92176,-0.602983,1.56547,0.565105,-0.216237,-0.783758,-0.140081,-0.219291,0.0750052,0.0012949,-0.000607143,0.014394,0.0473021,-0.0435788,-0.188695,-0.101411
1413393225605760512,-1.93413,-0.597857,1.56908,0.563861,-0.227644,-0.780658,-0.144268,-0.237844,0.111696,0.04105,-0.000597113,0.0144118,0.0473743,-0.0638423,-0.164992,-0.104217
1413393225655760384,-1.94539,-0.591495,1.57181,0.563092,-0.238739,-0.776815,-0.149967,-0.214701,0.139074,0.0493554,-0.000603871,0.0143824,0.047435,-0.0476059,-0.165892,-0.099075
1413393225705760512,-1.95574,-0.584232,1.57426,0.561542,-0.251014,-0.772599,-0.157334,-0.211724,0.156248,0.0734474,-0.000592855,0.0144094,0.0474943,-0.0583236,-0.144095,-0.139911
1413393225755760384,-1.96703,-0.575853,1.57801,0.559342,-0.260978,-0.768667,-0.167864,-0.224936,0.163524,0.0814587,-0.000534619,0.0144563,0.047589,-0.077625,-0.109123,-0.144743
1413393225805760512,-1.97847,-0.567046,1.58172,0.557284,-0.271075,-0.764043,-0.17942,-0.201296,0.194686,0.105378,-0.000546772,0.0144571,0.0476577,-0.0828436,-0.123788,-0.149838
1413393225855760384,-1.98847,-0.556716,1.58555,0.553838,-0.28045,-0.759693,-0.193594,-0.195143,0.20593,0.0473596,-0.000542066,0.0144962,0.0476622,-0.103567,-0.116163,-0.162291
1413393225905760512,-1.99952,-0.545601,1.58692,0.551279,-0.289623,-0.754702,-0.206483,-0.205775,0.211249,-0.0405871,-0.000527965,0.0145606,0.0477233,-0.130671,-0.103095,-0.177812
1413393225955760384,-2.01009,-0.5341,1.58172,0.54712,-0.297913,-0.750522,-0.220509,-0.212836,0.224376,-0.14099,-0.000531233,0.014576,0.0477682,-0.13875,-0.101041,-0.173764
1413393226005760512,-2.02134,-0.522983,1.57442,0.544155,-0.306484,-0.745304,-0.233422,-0.213981,0.221722,-0.201579,-0.000541549,0.01463,0.0478398,-0.153961,-0.0992059,-0.168249
1413393226055760384,-2.03303,-0.512117,1.56436,0.541651,-0.31653,-0.739513,-0.244017,-0.222824,0.215032,-0.211237,-0.000542337,0.0146777,0.0478963,-0.153569,-0.0998793,-0.178556
1413393226105760512,-2.04457,-0.502272,1.55349,0.539445,-0.327086,-0.734057,-0.251344,-0.227637,0.188902,-0.207587,-0.000547543,0.0146614,0.0479224,-0.133875,-0.099498,-0.173405
1413393226155760384,-2.05655,-0.493133,1.5434,0.537962,-0.337576,-0.728298,-0.257335,-0.226164,0.185479,-0.177975,-0.000567704,0.0146564,0.0479763,-0.116294,-0.109504,-0.176637
1413393226205760512,-2.06861,-0.48464,1.53674,0.535875,-0.347306,-0.723251,-0.262916,-0.21697,0.161693,-0.120248,-0.000611781,0.0146467,0.0480215,-0.107842,-0.12942,-0.163947
1413393226255760384,-2.08064,-0.476262,1.5323,0.533983,-0.356452,-0.719125,-0.265826,-0.21616,0.166864,-0.067191,-0.000669802,0.0145852,0.048055,-0.0804156,-0.144567,-0.154158
1413393226305760512,-2.09166,-0.467698,1.53007,0.532511,-0.364204,-0.715377,-0.268374,-0.188009,0.160506,-0.0483608,-0.000690604,0.0146338,0.048162,-0.113478,-0.127074,-0.13462
1413393226355760384,-2.10125,-0.459057,1.52882,0.530099,-0.372479,-0.713138,-0.267748,-0.20079,0.152144,-0.00302854,-0.000670672,0.0146786,0.0482053,-0.133262,-0.0792788,-0.168034
1413393226405760512,-2.11045,-0.451484,1.52909,0.526308,-0.378682,-0.712552,-0.268085,-0.192746,0.148021,-0.00110283,-0.000680923,0.0147221,0.0482927,-0.150175,-0.0726073,-0.145781
1413393226455760384,-2.12063,-0.443417,1.52748,0.522043,-0.384794,-0.712812,-0.267026,-0.207713,0.150982,-0.0171467,-0.000684201,0.0147888,0.0484147,-0.163842,-0.0603251,-0.145939
1413393226505760512,-2.13101,-0.43593,1.5262,0.518426,-0.389744,-0.713168,-0.265946,-0.222856,0.161132,-0.0610564,-0.000692783,0.0148266,0.0485007,-0.164244,-0.0614068,-0.139971
1413393226555760384,-2.14286,-0.427745,1.525,0.515953,-0.394029,-0.713118,-0.26457,-0.226603,0.171478,-0.0956546,-0.000690203,0.0148728,0.0485738,-0.163562,-0.0589285,-0.15391
1413393226605760512,-2.15409,-0.418542,1.51876,0.513359,-0.397344,-0.7135,-0.263627,-0.220294,0.192222,-0.12616,-0.000706311,0.0149083,0.0486381,-0.15588,-0.0520076,-0.161994
1413393226655760384,-2.16576,-0.408295,1.51311,0.511536,-0.398846,-0.713651,-0.264489,-0.228006,0.215407,-0.109624,-0.000691098,0.0149698,0.0487285,-0.149244,-0.039326,-0.157431
1413393226705760512,-2.17763,-0.397002,1.50782,0.510725,-0.396082,-0.713748,-0.269895,-0.236753,0.24011,-0.108372,-0.000688224,0.0150064,0.0487895,-0.138324,-0.040601,-0.158445
1413393226755760384,-2.18976,-0.384635,1.50177,0.511047,-0.39291,-0.712956,-0.275947,-0.230431,0.263089,-0.0933263,-0.000689642,0.0149985,0.0488438,-0.124133,-0.0351079,-0.158012
1413393226805760512,-2.20291,-0.371422,1.49701,0.510338,-0.389764,-0.713212,-0.281014,-0.26329,0.259851,-0.0795885,-0.000667659,0.0150227,0.048925,-0.12629,-0.0299466,-0.176501
1413393226855760384,-2.21617,-0.358205,1.4932,0.510058,-0.386828,-0.713666,-0.284405,-0.264201,0.266154,-0.100173,-0.000685654,0.0150629,0.0489854,-0.125918,-0.0425728,-0.176362
1413393226905760512,-2.22972,-0.344946,1.48875,0.508935,-0.383889,-0.714554,-0.288145,-0.269237,0.269055,-0.0865677,-0.000693028,0.0150802,0.0490476,-0.117461,-0.0477335,-0.178644
1413393226955760384,-2.24388,-0.331623,1.48489,0.508502,-0.382269,-0.715105,-0.289693,-0.292358,0.268261,-0.0671929,-0.000696101,0.0151023,0.0491201,-0.117918,-0.0342225,-0.176589
1413393227005760512,-2.2592,-0.31813,1.48082,0.508314,-0.380608,-0.715768,-0.290571,-0.300908,0.270174,-0.0626998,-0.00069513,0.0151229,0.0491725,-0.117397,-0.0330735,-0.179713
1413393227055760384,-2.27561,-0.304672,1.47736,0.509133,-0.380151,-0.715424,-0.290581,-0.321469,0.270257,-0.0496604,-0.000662952,0.015157,0.0492537,-0.126194,-0.0266061,-0.189224
1413393227105760512,-2.2938,-0.291772,1.47388,0.510794,-0.379766,-0.714413,-0.290657,-0.337293,0.260019,-0.054798,-0.000645257,0.0151709,0.0493,-0.112137,-0.0248626,-0.19159
1413393227155760384,-2.31264,-0.279702,1.4711,0.512831,-0.380681,-0.713082,-0.289138,-0.352467,0.256525,-0.0419937,-0.000607999,0.0151712,0.0493669,-0.108138,-0.020048,-0.199824
1413393227205760512,-2.33122,-0.267696,1.46916,0.514919,-0.381361,-0.711916,-0.287399,-0.35986,0.253514,-0.0248781,-0.000579951,0.0151805,0.0494346,-0.104491,-0.0220182,-0.201682
1413393227255760384,-2.34994,-0.255548,1.46757,0.517967,-0.383422,-0.709844,-0.284288,-0.360537,0.252046,-0.00415855,-0.000576543,0.0151887,0.0494888,-0.10461,-0.027952,-0.209192
1413393227305760512,-2.36829,-0.243791,1.466,0.518493,-0.384925,-0.70932,-0.282601,-0.359893,0.247796,-0.0147725,-0.000561075,0.015209,0.0495606,-0.111955,-0.0319792,-0.215293
1413393227355760384,-2.38656,-0.231936,1.46586,0.51977,-0.385845,-0.708176,-0.28187,-0.357829,0.245015,-0.00411762,-0.000556939,0.0152281,0.0496168,-0.112624,-0.0349957,-0.221216
1413393227405760512,-2.40555,-0.220727,1.46542,0.519548,-0.38733,-0.707909,-0.28091,-0.348816,0.252992,0.0021285,-0.000537634,0.0152428,0.0496822,-0.110909,-0.0378564,-0.221133
1413393227455760384,-2.42334,-0.208401,1.46491,0.519902,-0.388928,-0.707296,-0.279587,-0.344543,0.258031,0.00274596,-0.000523847,0.0152308,0.0497485,-0.109741,-0.0426741,-0.223434
1413393227505760512,-2.44128,-0.195837,1.46451,0.520115,-0.389958,-0.70667,-0.27934,-0.338137,0.259692,-0.000419278,-0.000525088,0.0152471,0.0497898,-0.112699,-0.0501148,-0.224338
1413393227555760384,-2.46123,-0.184647,1.46263,0.520939,-0.391472,-0.704611,-0.280886,-0.330503,0.270741,-0.000116683,-0.000453191,0.0152217,0.0498321,-0.106895,-0.0493977,-0.263215
1413393227605760512,-2.47834,-0.171733,1.46346,0.521471,-0.394365,-0.702263,-0.281728,-0.321353,0.274865,0.0042081,-0.000432962,0.0152857,0.0499179,-0.120961,-0.0542248,-0.255405
1413393227655760384,-2.49361,-0.158342,1.4643,0.52082,-0.397769,-0.70005,-0.283648,-0.301876,0.286539,0.0137697,-0.000452468,0.0152806,0.050002,-0.129747,-0.0724744,-0.248629
1413393227705760512,-2.50806,-0.144153,1.46455,0.519244,-0.402562,-0.697517,-0.286006,-0.280494,0.297087,0.0115684,-0.000466548,0.0152972,0.0500509,-0.127823,-0.0732421,-0.245815
1413393227755760384,-2.52185,-0.129724,1.46681,0.51776,-0.408478,-0.694031,-0.288776,-0.253303,0.303083,0.00927533,-0.000497227,0.0153351,0.0500993,-0.147025,-0.099379,-0.239593
1413393227805760512,-2.53366,-0.114586,1.46859,0.515003,-0.413966,-0.691043,-0.293026,-0.231299,0.306789,0.00215822,-0.000513611,0.0154119,0.0501548,-0.155845,-0.0915704,-0.236873
1413393227855760384,-2.54533,-0.0993924,1.46875,0.51367,-0.421641,-0.686059,-0.296118,-0.21006,0.319845,0.00708597,-0.000497371,0.0154466,0.0502392,-0.154221,-0.0723945,-0.247199
1413393227905760512,-2.55606,-0.0832797,1.46913,0.51119,-0.428998,-0.681432,-0.300495,-0.200625,0.324893,0.0201581,-0.000505564,0.0154592,0.0502759,-0.1499,-0.0768753,-0.267077
1413393227955760384,-2.56535,-0.0662585,1.47157,0.509411,-0.437073,-0.67556,-0.305102,-0.181501,0.329139,0.0159267,-0.000490932,0.015504,0.0503388,-0.146384,-0.0471213,-0.266252
1413393228005760512,-2.57341,-0.0499909,1.47258,0.506274,-0.446264,-0.669562,-0.310198,-0.158813,0.341841,-0.00400217,-0.000491061,0.0155171,0.0504042,-0.142392,-0.0344311,-0.283484
1413393228055760384,-2.58168,-0.0331635,1.47285,0.502243,-0.454576,-0.663573,-0.317464,-0.16285,0.348413,-0.0152843,-0.000463542,0.0155498,0.0504638,-0.143298,-0.0153458,-0.270535
1413393228105760512,-2.58964,-0.0159312,1.47209,-0.498566,0.463754,0.657054,0.323488,-0.149865,0.354014,0.00547005,-0.00046567,0.0155494,0.0505141,-0.141608,-0.0142993,-0.274421
1413393228155760384,-2.59658,0.00149096,1.47105,-0.492842,0.472531,0.651553,0.330606,-0.133808,0.354172,-0.0236069,-0.000446132,0.0155382,0.0505927,-0.129344,-0.00894613,-0.289422
1413393228205760512,-2.6033,0.0190347,1.47028,-0.48762,0.481554,0.645987,0.336206,-0.132827,0.356078,-0.0149912,-0.000442033,0.0155599,0.0506385,-0.13213,-0.00853787,-0.275919
1413393228255760384,-2.60973,0.0371305,1.46951,-0.482171,0.488034,0.641754,0.342763,-0.117431,0.35906,-0.0126439,-0.000470843,0.0155598,0.0506931,-0.123748,-0.0108421,-0.27904
1413393228305760512,-2.6155,0.0553305,1.46928,-0.477466,0.493908,0.637513,0.348796,-0.109712,0.363025,-0.00643595,-0.000458975,0.0155854,0.0507789,-0.126933,-0.00741223,-0.287534
1413393228355760384,-2.62105,0.0738635,1.46928,-0.473036,0.499084,0.633577,0.354589,-0.105962,0.370134,0.0041074,-0.000449195,0.015614,0.0508268,-0.128897,-0.00718065,-0.295482
1413393228405760512,-2.62629,0.0926748,1.47029,-0.468534,0.504422,0.629288,0.3606,-0.0852295,0.376559,0.0113874,-0.000474602,0.0156309,0.0508887,-0.140257,-0.0172061,-0.291122
1413393228455760384,-2.63032,0.111864,1.47052,-0.464844,0.510563,0.624032,0.365829,-0.0788394,0.385288,0.0234552,-0.000487138,0.015684,0.0509556,-0.157881,-0.0137911,-0.293671
1413393228505760512,-2.6343,0.131432,1.47238,-0.462447,0.515359,0.618346,0.371748,-0.0826969,0.38679,0.0307278,-0.000513122,0.0157452,0.0510253,-0.164139,-0.0153936,-0.268263
1413393228555760384,-2.63785,0.151099,1.47448,-0.459815,0.520838,0.612818,0.3765,-0.0590065,0.388722,0.0345955,-0.000531575,0.0157969,0.0510996,-0.175988,-0.00843617,-0.272883
1413393228605760512,-2.64091,0.170553,1.47639,-0.455736,0.526862,0.608244,0.380473,-0.0589229,0.388941,0.0426689,-0.000584227,0.0158124,0.0511396,-0.167936,-0.0201166,-0.315887
1413393228655760384,-2.64416,0.19016,1.4788,-0.453102,0.532034,0.604137,0.382958,-0.0705819,0.387701,0.0499587,-0.000562848,0.0158451,0.0512206,-0.162348,-0.00206202,-0.296953
1413393228705760512,-2.64705,0.209535,1.48144,-0.449438,0.536117,0.601692,0.385423,-0.0581379,0.390497,0.0475952,-0.000587504,0.0158948,0.0512864,-0.16118,0.0124771,-0.263274
1413393228755760384,-2.65033,0.229512,1.48416,-0.446587,0.539964,0.599495,0.386788,-0.0676897,0.393512,0.0524023,-0.000599649,0.0159382,0.0513606,-0.155279,0.0124341,-0.249175
1413393228805760512,-2.65303,0.24934,1.48819,-0.444236,0.544435,0.598425,0.38488,-0.0670756,0.399685,0.0416306,-0.000621181,0.0159986,0.0514577,-0.165608,0.00236235,-0.254648
1413393228855760384,-2.65538,0.2697,1.49076,-0.441814,0.548522,0.597707,0.382977,-0.0499611,0.394711,0.0317334,-0.000681709,0.0160371,0.0515465,-0.164984,-0.00280768,-0.259641
1413393228905760512,-2.65932,0.289074,1.49243,-0.438646,0.552736,0.59803,0.380043,-0.0642822,0.400051,0.0238765,-0.000616126,0.0160093,0.0515744,-0.142345,0.0348479,-0.258377
1413393228955760384,-2.66055,0.308931,1.49452,-0.437474,0.554722,0.597942,0.378635,-0.0483477,0.411613,0.01035,-0.000692576,0.0160377,0.0516578,-0.139671,0.000401202,-0.28821
1413393229005760512,-2.66104,0.330054,1.49721,-0.435219,0.554465,0.599008,0.379923,-0.0174269,0.435532,0.0304762,-0.000781814,0.0161343,0.0516788,-0.159424,-0.00463676,-0.26575
1413393229055760384,-2.66192,0.352576,1.49768,-0.432149,0.552154,0.60095,0.383709,-0.0218341,0.463931,-8.00747e-05,-0.000801696,0.016153,0.0517469,-0.147136,0.00369807,-0.257347
1413393229105760512,-2.6631,0.375966,1.4964,-0.430968,0.548898,0.602068,0.387934,-0.0216605,0.475207,-0.0294509,-0.000822831,0.0161763,0.051822,-0.141776,0.0163719,-0.244154
1413393229155760384,-2.66581,0.400376,1.49453,-0.429384,0.545997,0.603404,0.39169,-0.0346969,0.479452,-0.0188653,-0.000819662,0.0161997,0.0518528,-0.151244,0.0455167,-0.242329
1413393229205760512,-2.6685,0.424232,1.49272,-0.428205,0.543188,0.604689,0.394891,-0.0639142,0.482974,-0.0514234,-0.000821385,0.0162162,0.0519069,-0.14418,0.0526479,-0.236428
1413393229255760384,-2.67129,0.448746,1.49083,-0.427347,0.540299,0.606296,0.39731,-0.0804887,0.484172,-0.0610387,-0.000842005,0.0162751,0.0519711,-0.15093,0.0559315,-0.233222
1413393229305760512,-2.6765,0.473167,1.4867,-0.427416,0.538013,0.606782,0.399592,-0.102859,0.485792,-0.0720958,-0.000827597,0.0163454,0.0520594,-0.158117,0.0812298,-0.241718
1413393229355760384,-2.68233,0.497984,1.48314,-0.428227,0.536185,0.607046,0.400777,-0.149643,0.497104,-0.0856294,-0.000759673,0.0163687,0.0520921,-0.153448,0.122741,-0.225863
1413393229405760512,-2.68784,0.522621,1.48038,-0.430511,0.535264,0.606612,0.400219,-0.166869,0.49897,-0.0917369,-0.000812894,0.0164334,0.0521296,-0.162787,0.114426,-0.223768
1413393229455760384,-2.69667,0.547408,1.47531,-0.434563,0.535752,0.604481,0.398406,-0.181738,0.493294,-0.089307,-0.000815929,0.0164804,0.052189,-0.158941,0.114345,-0.220831
1413393229505760512,-2.70619,0.571912,1.47054,-0.439198,0.537164,0.602197,0.394867,-0.20914,0.488139,-0.0920234,-0.000799237,0.0165375,0.0522603,-0.15464,0.118354,-0.221442
1413393229555760384,-2.72314,0.610529,1.46731,-0.445774,0.535572,0.603775,0.387176,-0.20624,0.486466,-0.0650559,-0.00117044,0.016654,0.052273,-0.162433,0.144446,-0.247523
1413393229605760512,-2.71155,0.624227,1.47278,-0.450965,0.535932,0.604301,0.379773,-0.219001,0.486326,-0.0652907,-0.00129784,0.0166887,0.0523178,-0.143111,0.225676,-0.277163
1413393229655760384,-2.72516,0.652293,1.46619,-0.451711,0.538903,0.604341,0.374583,-0.227236,0.489223,-0.0584321,-0.00131236,0.0167293,0.0523512,-0.150988,0.200877,-0.281579
1413393229705760512,-2.7357,0.677784,1.46182,-0.450524,0.540909,0.605621,0.371039,-0.211154,0.500047,-0.0452228,-0.00131787,0.0167605,0.0523824,-0.147729,0.193411,-0.269742
1413393229755760384,-2.74642,0.703245,1.45814,-0.449247,0.542742,0.606805,0.367963,-0.212468,0.506892,-0.0301712,-0.00128823,0.0167937,0.0524593,-0.137671,0.19322,-0.259171
1413393229805760512,-2.75694,0.730293,1.45021,-0.446818,0.544774,0.608686,0.364797,-0.191045,0.519496,-0.0281399,-0.00130385,0.0167064,0.0525056,-0.110896,0.172279,-0.245401
1413393229855760384,-2.7659,0.756341,1.44387,-0.444,0.546278,0.611107,0.361928,-0.171163,0.528486,-0.01979,-0.00131294,0.016668,0.0525746,-0.0923847,0.172982,-0.233598
1413393229905760512,-2.77442,0.782418,1.44091,-0.441632,0.5475,0.613005,0.359764,-0.162199,0.532926,-0.0125801,-0.00129178,0.0166548,0.0526237,-0.0817497,0.175794,-0.226766
1413393229955760384,-2.78211,0.809268,1.43915,-0.439959,0.547094,0.614698,0.359544,-0.150666,0.555142,-0.00623704,-0.00129632,0.0166279,0.0526954,-0.0738618,0.171121,-0.214911
1413393230005760512,-2.78895,0.837006,1.4382,-0.438028,0.545124,0.61651,0.361784,-0.13003,0.571431,0.0318163,-0.00130425,0.0166158,0.0527721,-0.0622663,0.164069,-0.213428
1413393230055760384,-2.79607,0.865657,1.44011,-0.436797,0.540437,0.618191,0.367391,-0.143988,0.596609,0.0280428,-0.00127863,0.016598,0.0527904,-0.061695,0.164422,-0.230661
1413393230105760512,-2.80415,0.895761,1.44051,-0.435966,0.535992,0.619424,0.372775,-0.147266,0.613655,0.00394373,-0.00123815,0.0165284,0.0528594,-0.047459,0.175831,-0.219178
1413393230155760384,-2.8128,0.927115,1.44202,-0.435615,0.53255,0.620134,0.376913,-0.16377,0.633145,0.000793349,-0.0011979,0.0165721,0.0528918,-0.0566213,0.178466,-0.219904
1413393230205760512,-2.82346,0.959414,1.44522,-0.43499,0.529709,0.621123,0.379999,-0.195148,0.642805,-0.012004,-0.00113733,0.0166385,0.0529354,-0.0715491,0.187086,-0.21573
1413393230255760384,-2.83257,0.991465,1.44459,-0.436348,0.527197,0.620823,0.382417,-0.203954,0.650211,-0.0318555,-0.00113179,0.016618,0.0529937,-0.073701,0.176427,-0.212994
1413393230305760512,-2.84242,1.02405,1.44355,-0.438677,0.52528,0.620062,0.383625,-0.213961,0.652795,-0.0294346,-0.00114039,0.016638,0.0530329,-0.0875404,0.165577,-0.209756
1413393230355760384,-2.85168,1.05654,1.44161,-0.44087,0.525884,0.619283,0.381535,-0.221557,0.645421,-0.0583967,-0.00113332,0.0166396,0.053077,-0.0921707,0.164199,-0.214382
1413393230405760512,-2.86462,1.08946,1.43965,-0.443544,0.526654,0.617624,0.38006,-0.237177,0.655598,-0.0563558,-0.00107049,0.0166846,0.0531313,-0.0993905,0.162937,-0.235444
1413393230455760384,-2.88137,1.12244,1.43604,-0.444438,0.529145,0.615596,0.378843,-0.262792,0.675737,-0.0549079,-0.000890838,0.0166786,0.0531191,-0.0942076,0.185588,-0.272157
1413393230505760512,-2.89205,1.15731,1.43375,-0.445549,0.532918,0.612828,0.376732,-0.266213,0.687355,-0.0198751,-0.000857151,0.0167818,0.053192,-0.113698,0.19295,-0.266093
1413393230555760384,-2.90015,1.19204,1.43208,-0.445818,0.537701,0.609159,0.375565,-0.249486,0.696386,-0.0390153,-0.000890803,0.0168243,0.0532371,-0.112343,0.194039,-0.252659
1413393230605760512,-2.90925,1.22668,1.42576,-0.44547,0.543441,0.604059,0.375954,-0.23034,0.710198,-0.0346646,-0.000882249,0.0167861,0.0532916,-0.0993514,0.191933,-0.228218
1413393230655760384,-2.91961,1.26228,1.42534,-0.443843,0.550677,0.598257,0.376625,-0.229518,0.713875,-0.0123281,-0.000819383,0.0168197,0.0533663,-0.0947817,0.197981,-0.230422
1413393230705760512,-2.92929,1.29936,1.42849,-0.441103,0.557415,0.592503,0.379021,-0.206959,0.735245,0.0469039,-0.000824975,0.0168599,0.0533756,-0.0982073,0.191447,-0.209382
1413393230755760384,-2.9385,1.33601,1.43239,-0.438116,0.565011,0.585733,0.381751,-0.18893,0.729351,0.059319,-0.000764036,0.0168993,0.0534477,-0.0905067,0.197818,-0.22436
1413393230805760512,-2.94663,1.37117,1.43862,-0.435328,0.571918,0.578735,0.385313,-0.163892,0.725681,0.0649068,-0.000805768,0.0168354,0.0534759,-0.075581,0.182069,-0.230416
1413393230855760384,-2.95048,1.40623,1.44279,-0.430756,0.579104,0.571987,0.389769,-0.13026,0.73737,0.0713643,-0.000812935,0.0168502,0.0535618,-0.0675733,0.187251,-0.231024
1413393230905760512,-2.95489,1.44249,1.44743,-0.425035,0.585625,0.56526,0.396068,-0.106491,0.744534,0.0918718,-0.000861671,0.0168338,0.0536001,-0.0584059,0.172592,-0.223837
1413393230955760384,-2.95331,1.4777,1.44221,-0.41775,0.590382,0.560129,0.403967,-0.0756372,0.740942,0.0881734,-0.000922463,0.0167434,0.0536551,-0.0329435,0.159197,-0.211907
1413393231005760512,-2.95499,1.51429,1.44763,-0.409558,0.594256,0.555839,0.412511,-0.0485797,0.73694,0.101014,-0.00098068,0.0167267,0.0536999,-0.0389104,0.143519,-0.204498
1413393231055760384,-2.95648,1.55155,1.45408,-0.401018,0.596854,0.553097,0.420754,-0.0415489,0.746331,0.0923633,-0.00102655,0.0167314,0.0537328,-0.0423227,0.142321,-0.195291
1413393231105760512,-2.96005,1.58991,1.46085,-0.394343,0.598971,0.549932,0.428138,-0.0719732,0.754462,0.0950909,-0.0009443,0.01678,0.0537663,-0.0495222,0.174349,-0.206549
1413393231155760384,-2.96366,1.62869,1.46772,-0.388553,0.600835,0.547451,0.433959,-0.0883464,0.767129,0.121361,-0.000913506,0.0168469,0.0538115,-0.0682139,0.193786,-0.202345
1413393231205760512,-2.96799,1.66764,1.4753,-0.384569,0.603516,0.544702,0.437235,-0.104305,0.781808,0.12575,-0.000915751,0.0168695,0.0538217,-0.0739583,0.185519,-0.203818
1413393231255760384,-2.97424,1.70766,1.4832,-0.380707,0.605283,0.54277,0.440562,-0.144803,0.793895,0.128423,-0.000894993,0.0169033,0.0538737,-0.0877137,0.187793,-0.19992
1413393231305760512,-2.98037,1.7475,1.48956,-0.380099,0.607395,0.53986,0.441755,-0.153992,0.790313,0.0835042,-0.000935644,0.0169033,0.0539169,-0.0828403,0.176827,-0.189025
1413393231355760384,-2.98638,1.78711,1.4923,-0.381167,0.609792,0.536703,0.441379,-0.167033,0.797528,0.0425723,-0.000956472,0.0169547,0.0539629,-0.0972303,0.178944,-0.194624
1413393231405760512,-2.99402,1.82761,1.49693,-0.38367,0.612395,0.532943,0.44016,-0.183497,0.81142,0.0171188,-0.000939873,0.0170393,0.0539955,-0.111297,0.183063,-0.194791
1413393231455760384,-3.00133,1.86774,1.49665,-0.388709,0.613824,0.527994,0.439713,-0.17615,0.812953,-0.00881775,-0.000967781,0.0170916,0.0540623,-0.113496,0.187287,-0.196604
1413393231505760512,-3.0109,1.90841,1.49446,-0.395297,0.614151,0.521859,0.440706,-0.188529,0.808654,-0.0493398,-0.000915021,0.0171238,0.0540951,-0.114102,0.197998,-0.202306
1413393231555760384,-3.02053,1.94893,1.49099,-0.403252,0.612339,0.515579,0.443403,-0.192993,0.805978,-0.0940987,-0.000883392,0.0171806,0.0541407,-0.115242,0.204179,-0.203666
1413393231605760512,-3.02953,1.98879,1.48534,-0.410646,0.610524,0.509526,0.446109,-0.172527,0.782453,-0.121927,-0.000881634,0.0172153,0.0541877,-0.116119,0.208873,-0.201398
1413393231655760384,-3.03847,2.02676,1.47579,-0.415484,0.60967,0.504555,0.448443,-0.174099,0.751,-0.145295,-0.000849227,0.0171936,0.0542456,-0.100368,0.210684,-0.194718
1413393231705760512,-3.04585,2.06328,1.46743,-0.416552,0.609968,0.501822,0.45011,-0.149329,0.71392,-0.149024,-0.000860617,0.0171875,0.0542734,-0.0949054,0.20377,-0.192463
1413393231755760384,-3.05265,2.09801,1.46023,-0.414714,0.61275,0.499548,0.450558,-0.121143,0.675587,-0.13948,-0.000855606,0.0171975,0.0543049,-0.0896839,0.200315,-0.195516
1413393231805760512,-3.05865,2.13107,1.45364,-0.412201,0.617052,0.497292,0.449487,-0.120911,0.635501,-0.130311,-0.000841375,0.0172162,0.0543552,-0.0948151,0.197971,-0.197199
1413393231855760384,-3.06377,2.16225,1.4475,-0.41023,0.622974,0.494094,0.446639,-0.0899616,0.599024,-0.119051,-0.000832349,0.01723,0.0544093,-0.0909871,0.200772,-0.192484
1413393231905760512,-3.06753,2.19204,1.4418,-0.406234,0.631066,0.490445,0.442937,-0.0545654,0.572623,-0.096326,-0.000819028,0.0172367,0.0544457,-0.0799925,0.207761,-0.187847
1413393231955760384,-3.06936,2.22018,1.43607,-0.403035,0.638538,0.485784,0.44028,-0.0310769,0.558856,-0.0896318,-0.000815615,0.0172105,0.0545133,-0.0571865,0.214381,-0.183849
1413393232005760512,-3.06968,2.24721,1.43151,-0.399322,0.64568,0.480462,0.439086,0.00986124,0.524352,-0.0897361,-0.000819928,0.0171696,0.0545597,-0.044979,0.215907,-0.183987
1413393232055760384,-3.06842,2.27309,1.42798,-0.393358,0.6517,0.47598,0.440455,0.0500404,0.517758,-0.0627421,-0.000807447,0.0171161,0.0546,-0.0294665,0.223246,-0.190599
1413393232105760512,-3.06716,2.29955,1.42635,-0.386634,0.657337,0.470987,0.443388,0.0723596,0.494008,-0.049284,-0.000746925,0.017098,0.0546477,-0.0205816,0.227567,-0.19891
1413393232155760384,-3.0637,2.32468,1.42433,-0.379705,0.662792,0.465401,0.44714,0.112925,0.472808,-0.053805,-0.000759273,0.0171136,0.0546884,-0.0322011,0.220941,-0.18918
1413393232205760512,-3.05741,2.34918,1.42307,-0.37192,0.666432,0.460027,0.453783,0.142686,0.468438,-0.0498639,-0.000749411,0.0171155,0.0547163,-0.0336075,0.221816,-0.180744
1413393232255760384,-3.04966,2.37286,1.42112,-0.364963,0.670627,0.453855,0.459431,0.17004,0.455005,-0.0819194,-0.000784253,0.0171525,0.054771,-0.0392412,0.210969,-0.17066
1413393232305760512,-3.04098,2.39638,1.41754,-0.358413,0.674893,0.447018,0.46501,0.199288,0.44431,-0.115931,-0.000774535,0.0171234,0.0547855,-0.0333786,0.22057,-0.161809
1413393232355760384,-3.03055,2.41852,1.41179,-0.35339,0.680123,0.438836,0.46901,0.221659,0.436296,-0.148931,-0.000837753,0.01712,0.0548449,-0.0427683,0.207061,-0.157464
1413393232405760512,-3.01889,2.44042,1.40354,-0.347543,0.685698,0.431806,0.47178,0.246512,0.428637,-0.164171,-0.000846519,0.0170886,0.0549078,-0.0486992,0.213806,-0.155914
1413393232455760384,-3.00561,2.46153,1.39372,-0.341767,0.690884,0.424697,0.474875,0.270166,0.41526,-0.195363,-0.000896742,0.0171049,0.0549243,-0.0759766,0.208777,-0.155511
1413393232505760512,-2.99116,2.48215,1.38254,-0.336881,0.696203,0.417382,0.47708,0.289683,0.415419,-0.225036,-0.000954189,0.017089,0.0549657,-0.0821026,0.212431,-0.150177
1413393232555760384,-2.97597,2.50293,1.37095,-0.332784,0.700273,0.411293,0.479281,0.30921,0.417174,-0.257025,-0.000987457,0.0170779,0.055031,-0.0859879,0.21634,-0.15344
1413393232605760512,-2.96063,2.52429,1.35752,-0.329209,0.703345,0.406569,0.481279,0.317138,0.41365,-0.281695,-0.00100273,0.0171008,0.0550609,-0.095174,0.226597,-0.150938
1413393232655760384,-2.94456,2.54524,1.3444,-0.327023,0.706302,0.401409,0.482768,0.345417,0.406423,-0.256359,-0.00102526,0.0171076,0.0551022,-0.100884,0.232515,-0.151977
1413393232705760512,-2.92751,2.56605,1.33242,-0.325082,0.708091,0.397623,0.484588,0.351785,0.410367,-0.243476,-0.00102319,0.0171237,0.0551637,-0.106649,0.239385,-0.152835
1413393232755760384,-2.90955,2.58663,1.32119,-0.322237,0.709131,0.395854,0.486412,0.372585,0.399926,-0.216869,-0.00104673,0.0171353,0.0552257,-0.110313,0.243285,-0.150639
1413393232805760512,-2.89071,2.60736,1.31087,-0.31992,0.710511,0.394119,0.487336,0.401651,0.407274,-0.208124,-0.00104501,0.0171689,0.0552593,-0.114172,0.254929,-0.155895
1413393232855760384,-2.87081,2.62895,1.30171,-0.318746,0.711107,0.392493,0.488545,0.407512,0.421496,-0.195651,-0.0010209,0.0172138,0.055297,-0.116544,0.266466,-0.159622
1413393232905760512,-2.85018,2.65031,1.29255,-0.316381,0.712076,0.392767,0.488452,0.426686,0.415987,-0.18287,-0.00100297,0.0172325,0.0553267,-0.11811,0.274277,-0.162783
1413393232955760384,-2.82869,2.6718,1.28529,-0.312354,0.711561,0.394463,0.490422,0.443975,0.413979,-0.135336,-0.0010055,0.0172691,0.0553976,-0.120832,0.282602,-0.158454
1413393233005760512,-2.80628,2.69389,1.28085,-0.308866,0.711588,0.396357,0.491065,0.454747,0.431228,-0.0941182,-0.000987854,0.017303,0.0554004,-0.132072,0.285743,-0.161598
1413393233055760384,-2.78318,2.71581,1.27766,-0.305485,0.710917,0.398952,0.492049,0.46696,0.439021,-0.0530762,-0.000987403,0.0173401,0.0554257,-0.132378,0.286036,-0.160385
1413393233105760512,-2.76048,2.73887,1.27707,-0.302234,0.711283,0.401087,0.491793,0.474549,0.436859,-0.0153968,-0.000939295,0.0174175,0.0555447,-0.134821,0.301339,-0.156186
1413393233155760384,-2.73682,2.76144,1.27754,-0.300801,0.710893,0.402381,0.492178,0.475632,0.451517,0.0287997,-0.000934471,0.0174431,0.0555881,-0.134262,0.301689,-0.153008
1413393233205760512,-2.71248,2.78438,1.2799,-0.299857,0.710008,0.402936,0.493575,0.485381,0.466322,0.0820942,-0.000959946,0.017492,0.0556461,-0.13378,0.300183,-0.150676
1413393233255760384,-2.68738,2.80736,1.28559,-0.298641,0.708438,0.401856,0.497436,0.503878,0.454262,0.124372,-0.000976167,0.0175119,0.0556183,-0.135007,0.296067,-0.149861
1413393233305760512,-2.66345,2.83326,1.29455,-0.296423,0.707538,0.399971,0.501544,0.493585,0.483942,0.173452,-0.000841948,0.0176478,0.0556721,-0.138194,0.316107,-0.152578
1413393233355760384,-2.63846,2.85614,1.30279,-0.295493,0.705826,0.396379,0.507324,0.497706,0.479563,0.223132,-0.000849631,0.01765,0.0557078,-0.130949,0.317619,-0.145024
1413393233405760512,-2.61436,2.8803,1.31459,-0.294149,0.705404,0.390979,0.512853,0.485435,0.470084,0.236866,-0.00081718,0.0177036,0.055704,-0.133399,0.327112,-0.137381
1413393233455760384,-2.58621,2.89599,1.32366,-0.297049,0.705889,0.382469,0.516914,0.488612,0.435853,0.283465,-0.00110341,0.017652,0.0557452,-0.125258,0.290717,-0.124607
1413393233505760512,-2.55874,2.91576,1.33628,-0.2943,0.707139,0.377091,0.520716,0.487174,0.394191,0.328837,-0.00128473,0.0176569,0.0557553,-0.125668,0.274198,-0.116618
1413393233555760384,-2.53362,2.93384,1.35363,-0.291406,0.710854,0.37044,0.522057,0.488977,0.363092,0.346623,-0.00143258,0.0177749,0.055749,-0.137728,0.268878,-0.101514
1413393233605760512,-2.50891,2.95184,1.37189,-0.284712,0.715038,0.365312,0.523649,0.49281,0.360525,0.394504,-0.00147599,0.0178625,0.0557293,-0.136012,0.269243,-0.101511
1413393233655760384,-2.4845,2.9687,1.39083,-0.276906,0.720751,0.360169,0.523564,0.490843,0.347261,0.427544,-0.00157111,0.017889,0.0557148,-0.134331,0.270055,-0.103544
1413393233705760512,-2.46057,2.98541,1.41213,-0.268776,0.727379,0.354352,0.522603,0.482809,0.337852,0.459921,-0.00166025,0.017943,0.0556811,-0.132029,0.271681,-0.104716
1413393233755760384,-2.43697,3.00322,1.43607,-0.260584,0.730699,0.348121,0.526296,0.475209,0.345293,0.512977,-0.00164016,0.0179376,0.0555604,-0.12538,0.282284,-0.109167
1413393233805760512,-2.41498,3.02091,1.4608,-0.256503,0.734115,0.339334,0.529277,0.451475,0.335137,0.528904,-0.00171472,0.018,0.0556417,-0.122038,0.29228,-0.108146
1413393233855760384,-2.40004,3.04485,1.48443,-0.250468,0.734633,0.332601,0.535683,0.392829,0.380692,0.510892,-0.00134845,0.0180617,0.0559094,-0.122792,0.357323,-0.101926
1413393233905760512,-2.38259,3.06518,1.50967,-0.249653,0.736052,0.323867,0.539455,0.369038,0.386119,0.503236,-0.00128394,0.0180822,0.0560363,-0.116677,0.367884,-0.10159
1413393233955760384,-2.36488,3.08496,1.53634,-0.246278,0.737333,0.316234,0.543768,0.355943,0.376254,0.493947,-0.00125186,0.018157,0.0561882,-0.113311,0.378587,-0.103648
1413393234005760512,-2.34883,3.1032,1.56193,-0.244215,0.74062,0.307916,0.545004,0.325108,0.380338,0.489139,-0.00122226,0.0181119,0.0562892,-0.0983756,0.38341,-0.100368
1413393234055760384,-2.33478,3.12242,1.58112,-0.242782,0.745669,0.296933,0.544853,0.309453,0.363308,0.474504,-0.00118158,0.0180783,0.0562169,-0.10445,0.380082,-0.0895769
1413393234105760512,-2.31979,3.14105,1.60427,-0.239284,0.751866,0.287016,0.543196,0.305366,0.344547,0.46379,-0.00115109,0.0181905,0.0561659,-0.128109,0.377181,-0.0826246
1413393234155760384,-2.31231,3.15885,1.60431,-0.235645,0.757349,0.27506,0.543357,0.289988,0.328781,0.414704,-0.00101017,0.0181115,0.0560859,-0.1511,0.363668,-0.0772556
1413393234205760512,-2.2989,3.17371,1.61798,-0.233237,0.761733,0.265083,0.543226,0.29725,0.309286,0.39721,-0.000922651,0.0183029,0.0561305,-0.182602,0.353943,-0.077404
1413393234255760384,-2.28872,3.19012,1.63762,-0.23444,0.76228,0.253648,0.547385,0.310761,0.275955,0.367732,-0.000885745,0.0183919,0.056285,-0.17851,0.352738,-0.059783
1413393234305760512,-2.28872,3.21353,1.61848,-0.234663,0.753366,0.239308,0.565778,0.299279,0.236665,0.339787,-0.000384049,0.0177164,0.0569231,-0.214352,0.260833,-0.188019
1413393234355760384,-2.27099,3.22292,1.62942,-0.240663,0.751793,0.225328,0.571066,0.296174,0.19034,0.314327,-0.000300546,0.01777,0.057091,-0.188717,0.261782,-0.175964
1413393234405760512,-2.25068,3.22817,1.64355,-0.244357,0.750882,0.213673,0.575161,0.293745,0.138777,0.256093,-0.000275812,0.0179189,0.0573162,-0.162549,0.260049,-0.165591
1413393234455760384,-2.22944,3.23296,1.64726,-0.248155,0.751164,0.201556,0.577535,0.267956,0.0895777,0.212125,-0.000303602,0.0180079,0.0573681,-0.135761,0.268948,-0.14609
1413393234505760512,-2.21528,3.23354,1.65177,-0.247754,0.751262,0.191165,0.581102,0.248206,0.00884879,0.164446,-0.000326853,0.0179456,0.057323,-0.118635,0.256169,-0.152875
1413393234555760384,-2.20293,3.23159,1.6589,-0.241944,0.752038,0.183436,0.585025,0.238271,-0.0893584,0.195708,-0.000352442,0.0179586,0.0572585,-0.0934704,0.247771,-0.160786
1413393234605760512,-2.19191,3.22381,1.66617,-0.227707,0.752233,0.181285,0.591128,0.23703,-0.168239,0.187822,-0.000381911,0.0179456,0.0572394,-0.0801588,0.240358,-0.1632
1413393234655760384,-2.18049,3.2134,1.67675,-0.205832,0.753877,0.183886,0.596229,0.219277,-0.257167,0.239417,-0.000421162,0.0178688,0.0571657,-0.0437254,0.23139,-0.169214
1413393234705760512,-2.17041,3.19896,1.69239,-0.181972,0.756489,0.187357,0.59959,0.176229,-0.33382,0.369864,-0.00045024,0.017857,0.0571403,-0.0289071,0.231518,-0.168374
1413393234755760384,-2.16395,3.18022,1.71068,-0.162294,0.761138,0.188631,0.598956,0.12983,-0.368463,0.377518,-0.000506639,0.0178337,0.057173,-0.0192458,0.234484,-0.155092
1413393234805760512,-2.15826,3.16108,1.72893,-0.142796,0.766848,0.189781,0.596269,0.0982467,-0.374026,0.365771,-0.000537983,0.017807,0.0572278,-0.0220735,0.2229,-0.159789
1413393234855760384,-2.15759,3.14164,1.74103,-0.129495,0.772315,0.188837,0.592538,0.0791433,-0.366073,0.294946,-0.000620836,0.0177743,0.0575098,-0.0395869,0.211211,-0.184784
1413393234905760512,-2.1565,3.12422,1.75305,-0.122297,0.777974,0.181604,0.588914,0.0656353,-0.349965,0.210278,-0.000647461,0.0177881,0.0576657,-0.0510239,0.20714,-0.192463
1413393234955760384,-2.15653,3.10852,1.75902,-0.117163,0.782436,0.17203,0.586917,0.0478382,-0.326937,0.110779,-0.000632404,0.0177778,0.0578204,-0.0586406,0.193183,-0.192403
1413393235005760512,-2.15739,3.09303,1.7603,-0.116317,0.787047,0.158485,0.58473,0.0343443,-0.308498,0.013327,-0.0006057,0.0177562,0.0579083,-0.0705664,0.188565,-0.189752
1413393235055760384,-2.1553,3.07674,1.75756,-0.11697,0.790626,0.144079,0.583498,0.0308409,-0.297291,-0.0828359,-0.000620839,0.0177438,0.0579884,-0.0734822,0.194657,-0.201181
1413393235105760512,-2.15255,3.05862,1.74916,-0.116782,0.793579,0.130075,0.582817,0.0286777,-0.29849,-0.170576,-0.000661765,0.0177306,0.0580361,-0.0778896,0.209314,-0.202139
1413393235155760384,-2.14871,3.04154,1.73631,-0.11386,0.796867,0.117483,0.581581,0.0379824,-0.298974,-0.239874,-0.000699233,0.0177395,0.0580526,-0.0840564,0.229111,-0.20819
1413393235205760512,-2.14792,3.0262,1.72403,-0.105592,0.798374,0.107891,0.582931,0.0427758,-0.30168,-0.256305,-0.000703866,0.0177258,0.0580965,-0.0832894,0.226634,-0.216166
1413393235255760384,-2.14596,3.01179,1.71164,-0.0931914,0.800805,0.101761,0.582813,0.0456293,-0.303929,-0.270936,-0.000703768,0.017722,0.0581439,-0.0905577,0.220076,-0.200439
1413393235305760512,-2.14299,2.99561,1.6989,-0.0793928,0.802858,0.0977165,0.582724,0.0487496,-0.299558,-0.246662,-0.000738412,0.0176838,0.0582285,-0.0851416,0.218557,-0.191338
1413393235355760384,-2.13772,2.97631,1.679,-0.0687032,0.805044,0.0938104,0.581708,0.0503243,-0.286709,-0.23401,-0.000795609,0.0175966,0.0582999,-0.092756,0.210075,-0.219596
1413393235405760512,-2.1337,2.95903,1.66424,-0.0591516,0.807924,0.0915836,0.579114,0.0505503,-0.262888,-0.208679,-0.000845807,0.0175547,0.0583604,-0.111983,0.222244,-0.234753
1413393235455760384,-2.12972,2.94417,1.65281,-0.0517531,0.810307,0.0893343,0.576839,0.0675779,-0.237095,-0.185471,-0.000888708,0.0175265,0.0584197,-0.121637,0.247651,-0.251891
1413393235505760512,-2.12462,2.93207,1.64348,-0.0446467,0.812955,0.0889254,0.573762,0.0897758,-0.204139,-0.147959,-0.000937233,0.0175304,0.0584939,-0.131497,0.258934,-0.261062
1413393235555760384,-2.11752,2.92191,1.63643,-0.0350667,0.812385,0.0898741,0.575086,0.120035,-0.157711,-0.0979694,-0.000990133,0.0175493,0.0585052,-0.147106,0.263889,-0.258654
1413393235605760512,-2.11006,2.91358,1.62982,-0.023619,0.810141,0.0922598,0.578448,0.133095,-0.10472,-0.110903,-0.00104019,0.0175391,0.0585186,-0.145865,0.267348,-0.249788
1413393235655760384,-2.10217,2.90814,1.62297,-0.0152506,0.807711,0.0915999,0.58222,0.146666,-0.0474953,-0.08384,-0.00104725,0.0175305,0.0585652,-0.14945,0.271888,-0.249282
1413393235705760512,-2.09431,2.90716,1.61844,-0.00948164,0.804915,0.0906258,0.586353,0.147041,0.0205632,-0.0806297,-0.00104413,0.0175443,0.0586109,-0.148001,0.270849,-0.238558
1413393235755760384,-2.08716,2.91073,1.61606,-0.00818378,0.803572,0.0870981,0.588743,0.143253,0.0815431,-0.0659202,-0.00103687,0.0175841,0.0586439,-0.14487,0.261476,-0.220649
1413393235805760512,-2.08076,2.91636,1.61363,-0.0108006,0.80258,0.0824086,0.590726,0.131009,0.143246,-0.0552225,-0.0010283,0.0176266,0.0587087,-0.139161,0.258087,-0.217985
1413393235855760384,-2.07405,2.92424,1.61094,-0.0202859,0.801473,0.0742971,0.593052,0.123075,0.184519,-0.0572972,-0.00103219,0.0176382,0.058749,-0.132272,0.261367,-0.213958
1413393235905760512,-2.0672,2.93418,1.60871,-0.0313601,0.800591,0.0640801,0.59495,0.105761,0.209843,-0.0601277,-0.00104454,0.0176891,0.0588199,-0.119955,0.262181,-0.197962
1413393235955760384,-2.06265,2.94495,1.6062,-0.0419259,0.80007,0.0527528,0.59611,0.0965719,0.22923,-0.048014,-0.00102751,0.0177191,0.0588304,-0.115445,0.263063,-0.227184
1413393236005760512,-2.05865,2.95655,1.60545,-0.0474366,0.798867,0.0429163,0.598097,0.0818835,0.223132,-0.026261,-0.000992861,0.0177401,0.0588602,-0.101657,0.278626,-0.228357
1413393236055760384,-2.05616,2.96902,1.60557,-0.0518708,0.798205,0.031642,0.599315,0.0819385,0.213499,-0.028534,-0.000952192,0.0177854,0.05887,-0.0881561,0.28115,-0.232279
1413393236105760512,-2.05287,2.97891,1.60423,-0.053097,0.798154,0.0209913,0.599742,0.104491,0.19781,0.00930543,-0.000902043,0.0178014,0.0588604,-0.094605,0.287805,-0.259828
1413393236155760384,-2.04874,2.98597,1.60638,-0.0514551,0.798372,0.0106338,0.599868,0.0718976,0.154903,0.0120666,-0.000885798,0.0178055,0.0588566,-0.0942266,0.28554,-0.261652
1413393236205760512,-2.04553,2.99662,1.60951,-0.0433987,0.800131,0.00279415,0.598247,0.0560416,0.126453,0.0421767,-0.000879134,0.0178427,0.0588533,-0.09769,0.285351,-0.24605
1413393236255760384,-2.04286,3.00143,1.61262,-0.0327993,0.802091,-0.00231268,0.596296,0.0301012,0.115757,0.0795626,-0.000904373,0.0178509,0.0588804,-0.105322,0.287439,-0.24783
1413393236305760512,-2.04293,3.011,1.61983,-0.0179386,0.804065,-0.00724714,0.594227,0.0376628,0.0812424,0.0681646,-0.000861288,0.017929,0.0589044,-0.109451,0.281455,-0.227614
1413393236355760384,-2.04204,3.01724,1.62667,-0.00535639,0.805225,-0.0146418,0.592765,0.0351731,0.082055,0.107766,-0.000824947,0.0179888,0.0589216,-0.107046,0.278809,-0.225245
1413393236405760512,-2.04198,3.02452,1.63481,0.0038273,0.806692,-0.0235706,0.59049,0.0365556,0.0980653,0.112402,-0.00078518,0.0180709,0.0589132,-0.104931,0.271393,-0.201381
1413393236455760384,-2.03998,3.03044,1.64198,0.0110297,0.807343,-0.033416,0.589033,0.0302921,0.0953801,0.103353,-0.000775006,0.0181309,0.0589418,-0.106407,0.261071,-0.196188
1413393236505760512,-2.03817,3.03509,1.64756,0.0160572,0.80937,-0.0443034,0.585406,0.0355741,0.0893693,0.103237,-0.000791075,0.0181217,0.0589488,-0.0985576,0.263821,-0.200633
1413393236555760384,-2.03659,3.041,1.65415,0.02163,0.812177,-0.0549831,0.580412,0.04448,0.0915225,0.112714,-0.000767622,0.0181463,0.058985,-0.110263,0.280876,-0.202546
1413393236605760512,-2.03506,3.04664,1.66101,0.0267501,0.816345,-0.0659143,0.573167,0.0626982,0.0921997,0.113818,-0.000744778,0.0181687,0.0589946,-0.105927,0.275937,-0.199596
1413393236655760384,-2.03076,3.05206,1.66598,0.0310806,0.819647,-0.0765176,0.566884,0.095304,0.090872,0.0634084,-0.000732741,0.0181977,0.0590478,-0.109365,0.278459,-0.180482
1413393236705760512,-2.03602,3.07595,1.68407,0.0378654,0.821201,-0.0881255,0.56252,0.110025,0.095375,0.00809659,-0.000522856,0.0183819,0.0589793,-0.0952886,0.231755,-0.122299
1413393236755760384,-2.03174,3.08203,1.68415,0.0383621,0.82056,-0.0990106,0.561611,0.13004,0.0824727,-0.0361314,-0.000500337,0.0183776,0.0590016,-0.0942971,0.228495,-0.12684
1413393236805760512,-2.0256,3.08705,1.68234,0.0377235,0.818306,-0.110209,0.562855,0.146278,0.0703116,-0.0783299,-0.000483029,0.0184381,0.0590266,-0.0906568,0.231852,-0.11185
1413393236855760384,-2.01856,3.09042,1.67867,0.0388837,0.815602,-0.118589,0.564995,0.170549,0.0506076,-0.0676334,-0.000474187,0.0184303,0.0590254,-0.0833244,0.227196,-0.130753
1413393236905760512,-2.01061,3.09249,1.67718,0.0413479,0.813054,-0.124523,0.567211,0.185774,0.0201607,0.000530543,-0.000459571,0.0184359,0.0590816,-0.0811919,0.234599,-0.137523
1413393236955760384,-2.00197,3.09293,1.67837,0.0458931,0.809638,-0.127519,0.571069,0.208179,-0.0180458,0.0385855,-0.00044728,0.0184572,0.0590994,-0.0731087,0.247497,-0.139379
1413393237005760512,-1.99117,3.09128,1.68317,0.0515433,0.806788,-0.12751,0.574612,0.223583,-0.0384691,0.123834,-0.000451097,0.0184722,0.0591073,-0.0759065,0.263898,-0.121373
1413393237055760384,-1.98034,3.0887,1.69038,0.0573963,0.804979,-0.126169,0.576885,0.217092,-0.0600442,0.188754,-0.000440778,0.0184778,0.0591162,-0.0754566,0.27885,-0.112988
1413393237105760512,-1.96886,3.08621,1.70259,0.065447,0.803602,-0.122353,0.578767,0.222373,-0.0624201,0.261749,-0.000450347,0.0185183,0.0591519,-0.0875512,0.27868,-0.0965628
1413393237155760384,-1.95759,3.08396,1.71607,0.0743023,0.801706,-0.117201,0.581388,0.229245,-0.0489031,0.246764,-0.000434327,0.0185459,0.059175,-0.0831072,0.27512,-0.0785915
1413393237205760512,-1.94616,3.08257,1.72909,0.0826572,0.800709,-0.111516,0.582749,0.230398,-0.0294052,0.202993,-0.000425074,0.0185752,0.0591923,-0.0883103,0.27668,-0.0518782
1413393237255760384,-1.93493,3.08177,1.73772,0.088316,0.799944,-0.107653,0.583696,0.238266,-0.0236026,0.134865,-0.000425793,0.0185845,0.0591987,-0.0926815,0.269377,-0.0496123
1413393237305760512,-1.92372,3.08278,1.74394,0.0929705,0.800616,-0.104217,0.582675,0.233246,0.00757431,0.0809229,-0.000415832,0.018633,0.0592165,-0.103694,0.260838,-0.0376596
1413393237355760384,-1.91361,3.08521,1.74742,0.095787,0.801165,-0.101382,0.581964,0.227605,0.0417812,0.0116307,-0.000383694,0.018665,0.0592527,-0.106005,0.260069,-0.0401895
1413393237405760512,-1.90325,3.0889,1.74785,0.0971883,0.800632,-0.099613,0.58277,0.224687,0.0615821,-0.0547285,-0.00036131,0.0187032,0.059288,-0.108575,0.259184,-0.0336378
1413393237455760384,-1.8924,3.09293,1.74508,0.094677,0.800165,-0.100144,0.583733,0.227846,0.104846,-0.0824554,-0.000337873,0.0187074,0.0593293,-0.10338,0.255201,-0.052961
1413393237505760512,-1.88084,3.09875,1.74128,0.0881749,0.79943,-0.1027,0.585312,0.233934,0.132233,-0.0992019,-0.000318512,0.0187285,0.0593507,-0.0939853,0.261513,-0.0531827
1413393237555760384,-1.86964,3.10661,1.73692,0.0795857,0.799212,-0.10691,0.586086,0.2286,0.151687,-0.092882,-0.000306718,0.0187388,0.0594017,-0.102411,0.245694,-0.0500664
1413393237605760512,-1.85863,3.11469,1.7332,0.0706572,0.798302,-0.111341,0.587643,0.227682,0.156546,-0.0928248,-0.000289735,0.0187682,0.0594243,-0.103574,0.2495,-0.0440775
1413393237655760384,-1.84749,3.12266,1.72903,0.0615298,0.799066,-0.115911,0.586748,0.219486,0.150949,-0.0800189,-0.000278796,0.0187929,0.0594679,-0.0959399,0.245573,-0.0439008
1413393237705760512,-1.83659,3.13068,1.72571,0.0542816,0.799125,-0.119433,0.586676,0.210456,0.13818,-0.08677,-0.000273773,0.0188041,0.0594802,-0.083596,0.237352,-0.0361179
1413393237755760384,-1.82663,3.13753,1.72264,0.04916,0.799907,-0.121148,0.58571,0.19682,0.120354,-0.0741039,-0.000246099,0.0188245,0.0595262,-0.076484,0.243472,-0.0304338
1413393237805760512,-1.81682,3.14347,1.7197,0.0460461,0.800724,-0.121888,0.584692,0.196817,0.0944125,-0.0513785,-0.000249063,0.0188226,0.0595541,-0.0761361,0.236607,-0.0268119
1413393237855760384,-1.80725,3.14777,1.71654,0.0457904,0.802475,-0.120666,0.582561,0.197024,0.0696004,-0.0610882,-0.000249596,0.0188387,0.0595862,-0.0855436,0.236815,-0.0217063
1413393237905760512,-1.79778,3.15093,1.71488,0.0474455,0.804797,-0.11851,0.579661,0.188928,0.0458496,-0.0373315,-0.00024265,0.0188617,0.0595954,-0.0887802,0.233427,-0.0201321
1413393237955760384,-1.78847,3.15281,1.71305,0.0495234,0.806295,-0.116756,0.577757,0.180871,0.0212668,-0.0466441,-0.000239404,0.0188634,0.059609,-0.0921256,0.234498,-0.0169303
1413393238005760512,-1.77942,3.15361,1.71022,0.0562262,0.810161,-0.111953,0.572665,0.182589,0.00582395,-0.0469157,-0.000249977,0.0188772,0.0596348,-0.0956853,0.239265,-0.0192599
1413393238055760384,-1.77016,3.1543,1.70861,0.0629296,0.813222,-0.107409,0.568484,0.204032,0.00145612,-0.0274964,-0.000229453,0.0188947,0.0596456,-0.0970006,0.231891,-0.011289
1413393238105760512,-1.76042,3.15458,1.70788,0.0679275,0.816008,-0.104578,0.564429,0.220379,-0.00740039,-0.0236255,-0.000201997,0.0189085,0.0596716,-0.0999318,0.240257,-0.00273387
1413393238155760384,-1.74945,3.15496,1.70854,0.0733086,0.816802,-0.102764,0.562939,0.233784,-0.0115791,0.00379355,-0.000202779,0.0189408,0.059698,-0.108104,0.236624,0.0216693
1413393238205760512,-1.73739,3.15596,1.70983,0.0776833,0.81767,-0.101571,0.561306,0.268408,0.00540444,0.016694,-0.000181119,0.0189623,0.0597089,-0.123176,0.229469,0.0441506
1413393238255760384,-1.72285,3.15677,1.71309,0.0806684,0.818171,-0.100781,0.560297,0.273971,0.0233441,0.0748894,-0.000195412,0.0189909,0.0597332,-0.125993,0.232686,0.0773527
1413393238305760512,-1.70802,3.15813,1.71757,0.083297,0.818589,-0.102004,0.559079,0.307359,0.0273199,0.144283,-0.000195672,0.0189993,0.0597386,-0.124396,0.225238,0.0763935
1413393238355760384,-1.69187,3.16071,1.7271,0.0842131,0.81902,-0.10372,0.557993,0.345648,0.0516045,0.182454,-0.000185347,0.0190191,0.05973,-0.11413,0.224726,0.0773282
1413393238405760512,-1.67365,3.16347,1.73861,0.0844721,0.818561,-0.105635,0.558269,0.388221,0.0609612,0.25005,-0.000166743,0.0190275,0.0597383,-0.105649,0.245878,0.0783942
1413393238455760384,-1.65284,3.16678,1.75107,0.0819887,0.817085,-0.109077,0.560136,0.411127,0.076326,0.275173,-0.000180571,0.0190599,0.0597804,-0.0989995,0.23537,0.0746145
1413393238505760512,-1.63216,3.17093,1.76282,0.0761457,0.815232,-0.115619,0.562344,0.432085,0.0856861,0.240423,-0.00016321,0.0190773,0.0598054,-0.105031,0.236365,0.0676018
1413393238555760384,-1.61014,3.17557,1.77349,0.0692494,0.811921,-0.1226,0.566532,0.440114,0.0927442,0.183671,-0.000150281,0.0191019,0.0598423,-0.108255,0.233203,0.0609478
1413393238605760512,-1.58778,3.18018,1.78199,0.0613634,0.808637,-0.130037,0.570466,0.45778,0.0741978,0.125356,-0.000146055,0.0191363,0.0598886,-0.111328,0.221956,0.0657127
1413393238655760384,-1.56412,3.1837,1.78732,0.0540987,0.80638,-0.136768,0.572818,0.464872,0.0487823,0.083084,-0.000145442,0.0191679,0.0599272,-0.108542,0.213203,0.0722126
1413393238705760512,-1.54081,3.18579,1.79099,0.0487383,0.804451,-0.142161,0.574694,0.462215,0.0222478,0.0198961,-0.000138837,0.0192042,0.0599712,-0.103196,0.198936,0.0715942
1413393238755760384,-1.51957,3.18646,1.79233,0.0448969,0.802885,-0.146688,0.576058,0.452944,-0.0171758,-0.0177452,-0.000107583,0.019223,0.0599871,-0.0987513,0.203412,0.076284
1413393238805760512,-1.49739,3.18579,1.79222,0.0444507,0.801797,-0.148157,0.57723,0.444032,-0.0528207,-0.0307419,-0.000107781,0.0192596,0.0600386,-0.0901718,0.197834,0.0802154
1413393238855760384,-1.47555,3.18316,1.79195,0.0473902,0.801751,-0.147124,0.577326,0.428697,-0.0965935,-0.0227379,-0.000119848,0.019293,0.0600803,-0.0810482,0.182421,0.0727613
1413393238905760512,-1.45387,3.1792,1.79095,0.053363,0.802361,-0.143784,0.576797,0.425347,-0.1331,-0.0115336,-0.000117086,0.0193635,0.0601107,-0.0869509,0.157121,0.0657446
1413393238955760384,-1.43283,3.17242,1.79089,0.0619346,0.80355,-0.138404,0.575601,0.408272,-0.161886,0.00442618,-0.000142991,0.0193815,0.0601332,-0.0877721,0.147425,0.0596425
1413393239005760512,-1.41255,3.16494,1.79308,0.0718891,0.804128,-0.132609,0.575001,0.403925,-0.18849,0.0218073,-0.000135497,0.019428,0.0601841,-0.0802998,0.150617,0.0530399
1413393239055760384,-1.39189,3.15589,1.79343,0.0798287,0.80532,-0.127233,0.573497,0.418063,-0.177661,0.0173374,-0.000130526,0.0194311,0.0601896,-0.0788724,0.14977,0.0460581
1413393239105760512,-1.37124,3.14798,1.79505,0.0871232,0.805813,-0.122736,0.572722,0.414441,-0.191992,0.00540814,-0.000132755,0.0194907,0.0602685,-0.0819677,0.133517,0.0555331
1413393239155760384,-1.34981,3.14155,1.79692,0.09287,0.806089,-0.118981,0.572224,0.424504,-0.172275,0.0263027,-0.000151188,0.0195633,0.0603388,-0.093054,0.0964236,0.0521914
1413393239205760512,-1.3281,3.13386,1.79777,0.0967496,0.806863,-0.115915,0.571117,0.437569,-0.147496,0.00953766,-0.000160402,0.0195971,0.0603745,-0.0940949,0.0866639,0.0341089
1413393239255760384,-1.3062,3.128,1.80071,0.0994675,0.806537,-0.114683,0.57136,0.432072,-0.151469,0.0193246,-0.000164515,0.0196723,0.060443,-0.0956736,0.0735232,0.0344479
1413393239305760512,-1.28395,3.12126,1.80229,0.102161,0.806897,-0.113434,0.570626,0.4478,-0.126053,0.027836,-0.000156613,0.0196819,0.0604911,-0.083092,0.0691266,0.0271184
1413393239355760384,-1.26126,3.11526,1.80386,0.102962,0.80759,-0.112687,0.569648,0.459908,-0.106365,0.0363028,-0.000173168,0.0196972,0.0604962,-0.0829045,0.063214,0.03303
1413393239405760512,-1.2383,3.10989,1.80599,0.103503,0.807744,-0.113072,0.569256,0.468723,-0.0959387,0.0368676,-0.000169674,0.0196871,0.0605348,-0.0659964,0.0704017,0.0212
1413393239455760384,-1.21502,3.10538,1.80819,0.102752,0.808147,-0.11419,0.568596,0.480069,-0.064252,0.0384371,-0.000135114,0.0196618,0.060519,-0.0634646,0.083895,0.0423823
1413393239505760512,-1.19115,3.1025,1.81145,0.104916,0.808335,-0.112697,0.568232,0.490781,-0.0504061,0.0686925,-0.000145217,0.0196997,0.0605797,-0.0817155,0.0660666,0.0468918
1413393239555760384,-1.16649,3.10032,1.81486,0.102682,0.808496,-0.114497,0.568051,0.495117,-0.0261026,0.0714621,-0.000144706,0.019722,0.0606061,-0.0863004,0.0659059,0.0352411
1413393239605760512,-1.14125,3.09964,1.81898,0.0985074,0.808672,-0.116589,0.568113,0.506004,0.00667681,0.0863156,-0.000146427,0.0197351,0.0606455,-0.089664,0.0592318,0.0244182
1413393239655760384,-1.11578,3.09952,1.82408,0.0910857,0.807923,-0.121614,0.569363,0.514239,0.00507689,0.112688,-0.000154107,0.0197501,0.0606863,-0.0875663,0.0634645,0.0197339
1413393239705760512,-1.08936,3.10012,1.82853,0.0806099,0.807047,-0.128598,0.570649,0.524696,-0.00469476,0.113726,-0.000152508,0.01975,0.0607444,-0.0865189,0.0640321,0.0103389
1413393239755760384,-1.06277,3.09965,1.83404,0.0720279,0.806114,-0.133868,0.571902,0.535895,-0.0136937,0.108425,-0.00016613,0.0197661,0.0607716,-0.0890183,0.0567486,0.0176715
1413393239805760512,-1.03575,3.09814,1.83951,0.0665925,0.805763,-0.137103,0.572288,0.535344,-0.0522878,0.113173,-0.000174826,0.0197791,0.0607943,-0.0822366,0.0537461,0.00128777
1413393239855760384,-1.00835,3.09517,1.84369,0.0636613,0.806583,-0.138719,0.571077,0.534212,-0.0726617,0.0891644,-0.000195551,0.0197936,0.0608529,-0.0882074,0.0509798,0.0138277
1413393239905760512,-0.980646,3.09097,1.84792,0.0654009,0.80766,-0.136877,0.569801,0.53589,-0.097709,0.106683,-0.000212828,0.0198014,0.060873,-0.0784641,0.0503542,0.000901448
1413393239955760384,-0.953265,3.08572,1.85271,0.0670146,0.808103,-0.135407,0.569336,0.543212,-0.124476,0.116441,-0.000233474,0.0198234,0.0609119,-0.0707716,0.0519166,-0.00434179
1413393240005760512,-0.925489,3.07874,1.85705,0.0713244,0.807869,-0.132017,0.569941,0.552089,-0.144815,0.111754,-0.000251035,0.0198286,0.0609379,-0.0728797,0.0437574,0.0121447
1413393240055760384,-0.896946,3.07091,1.86202,0.0763422,0.807793,-0.127401,0.570449,0.551845,-0.159139,0.120929,-0.000290853,0.0198362,0.0609803,-0.0722012,0.0350664,0.0164871
1413393240105760512,-0.868764,3.06237,1.86741,0.0835804,0.807079,-0.121739,0.571679,0.549736,-0.172369,0.130838,-0.000305738,0.0198376,0.0609989,-0.0738495,0.0494746,0.0173082
1413393240155760384,-0.840657,3.05379,1.87253,0.0895399,0.806667,-0.116388,0.572472,0.551262,-0.159606,0.100631,-0.000314649,0.019837,0.061043,-0.0734154,0.0591345,-0.00169295
1413393240205760512,-0.813002,3.04633,1.87678,0.0935634,0.806157,-0.112428,0.573338,0.539163,-0.145139,0.0593481,-0.000314869,0.0198245,0.061055,-0.0560059,0.0677441,-0.0158206
1413393240255760384,-0.785756,3.0394,1.87765,0.0959867,0.806802,-0.109509,0.572595,0.542707,-0.129827,0.00485219,-0.000333997,0.0198055,0.0611053,-0.0530481,0.0617661,-0.0137426
1413393240305760512,-0.758229,3.03375,1.87517,0.0949663,0.806872,-0.109595,0.57265,0.551582,-0.106268,-0.0545054,-0.000341649,0.019786,0.0611246,-0.0539291,0.0579313,-0.0180405
1413393240355760384,-0.72995,3.02811,1.87066,0.0929296,0.806751,-0.110533,0.572974,0.557627,-0.0961508,-0.111094,-0.000342464,0.0198013,0.0611632,-0.0538156,0.072394,0.0162974
1413393240405760512,-0.701738,3.02291,1.86205,0.0881169,0.80609,-0.113703,0.574044,0.571977,-0.0888009,-0.153623,-0.000363895,0.0197723,0.0611828,-0.0454422,0.0477629,0.0145897
1413393240455760384,-0.673168,3.01864,1.8531,0.084116,0.805138,-0.115951,0.575528,0.565586,-0.0898659,-0.196774,-0.000371502,0.0197999,0.0612194,-0.0637664,0.0550974,0.0228839
1413393240505760512,-0.645111,3.01457,1.84254,0.0783445,0.804484,-0.119937,0.576441,0.545431,-0.088416,-0.207703,-0.000362234,0.0198249,0.0612544,-0.0618346,0.0603677,0.0504895
1413393240555760384,-0.617295,3.01042,1.83252,0.0739075,0.803608,-0.122876,0.577627,0.531136,-0.0968526,-0.16841,-0.000385147,0.0198508,0.0612778,-0.0261251,0.0611484,0.0781235
1413393240605760512,-0.590598,3.00581,1.82529,0.0704202,0.803007,-0.125362,0.578364,0.508989,-0.104364,-0.118499,-0.000393719,0.0198493,0.0613158,0.0120868,0.0568749,0.0855562
1413393240655760384,-0.564958,3.00008,1.82095,0.0695416,0.803073,-0.126602,0.578108,0.527294,-0.124282,-0.061924,-0.000408234,0.0198585,0.0613284,0.0368236,0.0641586,0.0923928
1413393240705760512,-0.538613,2.99368,1.8214,0.0705501,0.803236,-0.127167,0.577636,0.537596,-0.145876,0.0687616,-0.0004038,0.0198576,0.0613685,0.0465937,0.0618549,0.0731768
1413393240755760384,-0.512377,2.98607,1.82688,0.0747551,0.802647,-0.12592,0.578199,0.52266,-0.146811,0.114307,-0.000402994,0.0198506,0.0613899,0.0415165,0.0625473,0.0708681
1413393240805760512,-0.486437,2.97831,1.83284,0.0793252,0.80129,-0.124407,0.579797,0.519155,-0.153441,0.134258,-0.000413639,0.0198557,0.0614101,0.0153839,0.0569746,0.0694279
1413393240855760384,-0.460949,2.97098,1.83825,0.0851582,0.799989,-0.121802,0.581317,0.51524,-0.147313,0.105055,-0.000409643,0.0198637,0.0614372,-0.012937,0.0497366,0.0489001
1413393240905760512,-0.435607,2.96338,1.84208,0.0889485,0.797341,-0.120948,0.584557,0.502203,-0.159088,0.0541081,-0.000425177,0.019882,0.0614536,-0.023493,0.0452334,0.0508133
1413393240955760384,-0.411488,2.95579,1.84329,0.0926514,0.794595,-0.120511,0.587803,0.473175,-0.151266,-0.00763269,-0.000433748,0.0198948,0.0614677,-0.036258,0.0422574,0.0678795
1413393241005760512,-0.388026,2.9486,1.84145,0.0953786,0.792013,-0.120002,0.590947,0.469517,-0.145114,-0.0566861,-0.000436346,0.0199059,0.0615023,-0.0494392,0.0446407,0.0701228
1413393241055760384,-0.364908,2.94147,1.83729,0.0960243,0.789546,-0.121165,0.593899,0.45414,-0.143908,-0.10627,-0.000439282,0.0199227,0.0615273,-0.0613363,0.0392872,0.0695232
1413393241105760512,-0.342412,2.93524,1.82983,0.0934713,0.788364,-0.124474,0.595191,0.433839,-0.125201,-0.17072,-0.000447415,0.0199491,0.0615471,-0.0700353,0.0432799,0.0820344
1413393241155760384,-0.321539,2.9293,1.82013,0.0889701,0.787767,-0.129274,0.595647,0.401823,-0.11813,-0.221554,-0.000451201,0.0199845,0.0615806,-0.0729582,0.0437191,0.0825342
1413393241205760512,-0.301873,2.92385,1.80853,0.0842139,0.787967,-0.133963,0.595039,0.384831,-0.114691,-0.242206,-0.000454503,0.0199901,0.0616067,-0.0713457,0.0344641,0.074718
1413393241255760384,-0.283453,2.91798,1.79646,0.0798713,0.788619,-0.138643,0.593699,0.356983,-0.120038,-0.246834,-0.000464359,0.0199696,0.0616451,-0.064764,0.0344846,0.0721552
1413393241305760512,-0.266186,2.91172,1.78438,0.0764282,0.790376,-0.142683,0.590852,0.33757,-0.13355,-0.230653,-0.000470065,0.0199629,0.0616749,-0.0651301,0.0421289,0.0731761
1413393241355760384,-0.249625,2.90484,1.77216,0.0757821,0.795454,-0.144778,0.583567,0.321381,-0.143819,-0.228809,-0.000468922,0.0199768,0.0617022,-0.0606517,0.0494409,0.0787756
1413393241405760512,-0.233252,2.89743,1.76085,0.0749283,0.798808,-0.146605,0.578618,0.312413,-0.166843,-0.220021,-0.000486951,0.019972,0.0617372,-0.0556666,0.0473178,0.071026
1413393241455760384,-0.217521,2.88854,1.75056,0.0772892,0.801387,-0.146423,0.574775,0.305015,-0.189363,-0.18645,-0.000506745,0.0199603,0.0617666,-0.0612635,0.0458226,0.0838342
1413393241505760512,-0.202156,2.87918,1.74175,0.0816719,0.80288,-0.144105,0.572667,0.302033,-0.193029,-0.152673,-0.000505583,0.0199684,0.0617885,-0.0569701,0.0578073,0.0730166
1413393241555760384,-0.187285,2.8691,1.73443,0.0868692,0.80268,-0.14121,0.572904,0.301198,-0.215678,-0.148233,-0.000506987,0.0199789,0.0618181,-0.0592305,0.0594457,0.0641145
1413393241605760512,-0.172023,2.85861,1.72751,0.0929341,0.801476,-0.137453,0.57455,0.305237,-0.213274,-0.147767,-0.00051579,0.020005,0.0618433,-0.0531266,0.0613073,0.05704
1413393241655760384,-0.156334,2.84909,1.72048,0.0974529,0.800719,-0.133855,0.575704,0.306658,-0.197303,-0.138078,-0.000517519,0.0200152,0.0618825,-0.0478703,0.0512567,0.058636
1413393241705760512,-0.140432,2.83977,1.71377,0.102217,0.799758,-0.130202,0.57705,0.307509,-0.19561,-0.142972,-0.000539021,0.0200123,0.0619068,-0.0442556,0.0397188,0.0510907
1413393241755760384,-0.124752,2.83034,1.70691,0.10437,0.799731,-0.128778,0.577021,0.309733,-0.186793,-0.135206,-0.00054402,0.0200348,0.0619406,-0.0413557,0.0458547,0.053614
1413393241805760512,-0.108817,2.82183,1.69976,0.106369,0.800801,-0.12661,0.575651,0.310023,-0.165117,-0.138662,-0.00054741,0.0200413,0.0619626,-0.0432506,0.0394585,0.0631788
1413393241855760384,-0.0930941,2.81387,1.69306,0.107273,0.801623,-0.12514,0.574659,0.312938,-0.158044,-0.13016,-0.000557944,0.0200417,0.0619965,-0.0420635,0.0381545,0.0636198
1413393241905760512,-0.0772963,2.80668,1.68763,0.107916,0.800768,-0.124172,0.57594,0.312897,-0.135345,-0.0878042,-0.000555189,0.0200526,0.0620211,-0.0463919,0.0333553,0.0672642
1413393241955760384,-0.0614324,2.80091,1.68315,0.108654,0.798903,-0.121713,0.578908,0.310079,-0.104222,-0.0854121,-0.000562213,0.0200615,0.0620455,-0.0549521,0.0297528,0.0721188
1413393242005760512,-0.0459601,2.79611,1.67844,0.108346,0.797394,-0.120488,0.581298,0.307566,-0.0951386,-0.0834397,-0.000569753,0.0200733,0.062079,-0.0533723,0.0322341,0.0742356
1413393242055760384,-0.0309666,2.79219,1.67518,0.108603,0.794825,-0.118579,0.585148,0.304823,-0.0590973,-0.0600835,-0.000563827,0.0200815,0.0621097,-0.0480573,0.0275497,0.0681018
1413393242105760512,-0.0164772,2.78939,1.67205,0.108534,0.79255,-0.116655,0.588623,0.291419,-0.0386516,-0.0516325,-0.000556485,0.0200978,0.0621276,-0.0526968,0.0312861,0.0563993
1413393242155760384,-0.00252654,2.78776,1.66948,0.106591,0.789025,-0.116638,0.593696,0.272886,-0.0236554,-0.0437142,-0.000567955,0.0201249,0.0621478,-0.0522705,0.0359641,0.058057
1413393242205760512,0.0104335,2.78747,1.66753,0.103748,0.785126,-0.116862,0.599298,0.251189,0.0152232,-0.0314747,-0.000570559,0.0201348,0.0621543,-0.0541923,0.0276082,0.0579135
1413393242255760384,0.0221658,2.7882,1.66603,0.102192,0.782648,-0.116525,0.602861,0.220791,0.0216728,-0.0249306,-0.00057297,0.0201608,0.0621728,-0.0540979,0.0289407,0.0543717
1413393242305760512,0.0325881,2.79006,1.66504,0.100206,0.781435,-0.117303,0.604614,0.18604,0.0358986,-0.0202541,-0.000580342,0.0201793,0.0621938,-0.0545243,0.0312627,0.0473509
1413393242355760384,0.0411998,2.79264,1.66398,0.0959758,0.782373,-0.119355,0.603685,0.162694,0.0610812,-0.0325885,-0.00056236,0.020174,0.0622276,-0.0503542,0.0362637,0.0470348
1413393242405760512,0.0482564,2.79582,1.66285,0.0897415,0.785212,-0.123013,0.600215,0.128024,0.0704187,-0.0268502,-0.000559999,0.0201742,0.0622557,-0.0574014,0.0373185,0.0417187
1413393242455760384,0.054006,2.79942,1.66158,0.0824285,0.789733,-0.127769,0.594308,0.104587,0.0763918,-0.0230037,-0.00056216,0.0201666,0.0622726,-0.0664773,0.0378439,0.0488267
1413393242505760512,0.0586398,2.80317,1.66037,0.0742945,0.795164,-0.133187,0.586903,0.0827133,0.0736647,-0.030976,-0.000567378,0.0201742,0.0622946,-0.0679317,0.0304722,0.0558817
1413393242555760384,0.0622704,2.80621,1.65966,0.068149,0.800024,-0.137127,0.580098,0.0732963,0.0489062,0.00136296,-0.000571659,0.0201568,0.0623144,-0.0682699,0.0361432,0.0528769
1413393242605760512,0.0656339,2.80811,1.65986,0.0635373,0.803823,-0.140274,0.574591,0.0634218,0.0192081,0.0133766,-0.000576225,0.0201691,0.0623483,-0.0676672,0.0291879,0.0478271
1413393242655760384,0.0689721,2.80846,1.66101,0.061149,0.806364,-0.141512,0.570975,0.0700787,-0.00511063,0.0356131,-0.000575769,0.0201833,0.0623891,-0.0659008,0.0323176,0.0490194
1413393242705760512,0.0725231,2.80705,1.6629,0.0590397,0.807078,-0.143221,0.569761,0.0755011,-0.048883,0.0358488,-0.000576138,0.0202041,0.0624149,-0.0576864,0.0356543,0.0563895
1413393242755760384,0.0762567,2.80388,1.66529,0.0553287,0.806614,-0.144712,0.570413,0.0806368,-0.0744863,0.0617613,-0.00057127,0.0202004,0.0624307,-0.0548842,0.0347337,0.0515459
1413393242805760512,0.0805202,2.79912,1.66815,0.0541825,0.806177,-0.143059,0.571557,0.0849201,-0.114742,0.0633508,-0.000595429,0.0202178,0.0624452,-0.0591714,0.0312836,0.0544841
1413393242855760384,0.0849034,2.79264,1.6716,0.0547133,0.806195,-0.138499,0.572603,0.0876786,-0.143393,0.0825205,-0.000594268,0.020229,0.0624727,-0.0636298,0.0351743,0.0612488
1413393242905760512,0.0898551,2.78513,1.67563,0.0602515,0.807105,-0.128168,0.573171,0.0953858,-0.158656,0.073204,-0.000603911,0.020232,0.0624863,-0.066125,0.0235638,0.066969
1413393242955760384,0.0950641,2.77666,1.67914,0.0637743,0.809481,-0.118351,0.571548,0.0903321,-0.188264,0.0940435,-0.00064444,0.0202259,0.0625166,-0.0655179,0.0213209,0.0670762
1413393243005760512,0.100556,2.76793,1.68342,0.0655384,0.812473,-0.107875,0.569171,0.103323,-0.18358,0.099943,-0.000634203,0.0202326,0.0625381,-0.069718,0.0268103,0.0750751
1413393243055760384,0.106384,2.75882,1.68793,0.0650137,0.815237,-0.0964785,0.567321,0.114322,-0.187036,0.0910115,-0.000641602,0.0202348,0.0625463,-0.0711247,0.0193067,0.0687062
1413393243105760512,0.112594,2.74941,1.69286,0.0624121,0.81798,-0.0858637,0.565369,0.129968,-0.193497,0.105876,-0.000654327,0.0202397,0.06257,-0.0623325,0.0295717,0.0749117
1413393243155760384,0.119955,2.74106,1.69851,0.0571684,0.819256,-0.0747255,0.565657,0.153126,-0.166393,0.126952,-0.000653401,0.0202459,0.0625901,-0.0640975,0.0259058,0.0647433
1413393243205760512,0.128314,2.73313,1.70523,0.0511574,0.818026,-0.0632807,0.569396,0.172231,-0.162379,0.152112,-0.000663053,0.0202562,0.0626122,-0.0637816,0.0284539,0.0694811
1413393243255760384,0.137164,2.72508,1.713,0.0460506,0.814411,-0.0536693,0.575963,0.17809,-0.175395,0.151196,-0.000662146,0.0202684,0.0626473,-0.062539,0.0416969,0.0742453
1413393243305760512,0.14635,2.71716,1.71924,0.0417288,0.810426,-0.0444181,0.582663,0.184909,-0.146388,0.100846,-0.000664556,0.0202807,0.0626774,-0.0592604,0.0361084,0.075886
1413393243355760384,0.155612,2.70946,1.72253,0.0364127,0.807306,-0.0376651,0.587804,0.179728,-0.1576,0.0509936,-0.000673349,0.0202913,0.0626947,-0.0594269,0.0361928,0.0814486
1413393243405760512,0.164202,2.70207,1.72412,0.0328816,0.804152,-0.0320665,0.592647,0.162258,-0.150082,0.00477542,-0.000669117,0.0202965,0.0627317,-0.0561013,0.0424625,0.0878682
1413393243455760384,0.171979,2.69545,1.72339,0.0291171,0.802342,-0.0268989,0.595547,0.146983,-0.131442,-0.0329251,-0.000682627,0.0203144,0.0627505,-0.0506543,0.0410894,0.0857062
1413393243505760512,0.178903,2.68899,1.72015,0.0258419,0.800799,-0.0229148,0.597937,0.12677,-0.129648,-0.0964138,-0.000680388,0.0203155,0.0627868,-0.0503288,0.0452452,0.0825195
1413393243555760384,0.184893,2.68272,1.71375,0.0227092,0.80014,-0.0197769,0.599057,0.103978,-0.125865,-0.141287,-0.000683627,0.0203059,0.0628011,-0.0411598,0.0365517,0.0751226
1413393243605760512,0.189672,2.67692,1.70628,0.0205764,0.800158,-0.017077,0.599193,0.0872211,-0.1183,-0.146823,-0.000680145,0.0203282,0.0628392,-0.0456156,0.0451587,0.0855387
1413393243655760384,0.193591,2.67151,1.69844,0.0190577,0.800692,-0.0147076,0.598593,0.0652395,-0.108447,-0.155476,-0.000687628,0.0203296,0.0628512,-0.0478203,0.0454461,0.0816397
1413393243705760512,0.196257,2.66658,1.69089,0.0183949,0.802121,-0.0123372,0.596751,0.0488268,-0.092694,-0.123448,-0.000687471,0.020321,0.0628943,-0.0542511,0.050139,0.0848805
1413393243755760384,0.198126,2.66227,1.68476,0.017428,0.803763,-0.0110766,0.594591,0.0243506,-0.0861278,-0.110253,-0.000694345,0.0203268,0.0629214,-0.0544856,0.0535958,0.0827949
1413393243805760512,0.199121,2.65876,1.67991,0.0176789,0.805409,-0.00954315,0.592379,0.00239402,-0.0743646,-0.0784973,-0.000700643,0.0203327,0.0629601,-0.0541862,0.0497581,0.0857941
1413393243855760384,0.19897,2.65548,1.67609,0.0160131,0.806039,-0.00944714,0.59157,-0.00943555,-0.0597528,-0.0682569,-0.00070231,0.0203521,0.0629819,-0.0518112,0.0540904,0.0835176
1413393243905760512,0.197855,2.65236,1.67343,0.0163594,0.806408,-0.00860596,0.591071,-0.0226341,-0.0566112,-0.0343001,-0.000710049,0.0203193,0.0630041,-0.0489184,0.0549754,0.0914736
1413393243955760384,0.19642,2.65018,1.67164,0.016267,0.806489,-0.00798142,0.590971,-0.035869,-0.0451701,-0.0246196,-0.000711765,0.0203485,0.0630295,-0.0495505,0.0602428,0.0931832
1413393244005760512,0.194208,2.64839,1.67039,0.0161977,0.806776,-0.00751735,0.590588,-0.0451656,-0.0322058,-0.0198386,-0.00072863,0.0203456,0.063053,-0.0460234,0.0595703,0.087391
1413393244055760384,0.19176,2.64732,1.67005,0.0175546,0.806554,-0.00662087,0.590863,-0.0554138,-0.0200265,0.000139102,-0.000725589,0.0203626,0.0630864,-0.049421,0.0656825,0.0943824
1413393244105760512,0.188819,2.64714,1.67023,0.0183846,0.80688,-0.00587296,0.5904,-0.0684142,-0.0042555,0.022075,-0.00074576,0.020359,0.0631195,-0.0473939,0.0603218,0.100666
1413393244155760384,0.184953,2.6473,1.67079,0.0187712,0.807151,-0.00450186,0.59003,-0.0844428,0.0128774,0.00312363,-0.000757117,0.0203617,0.0631416,-0.0430518,0.0508657,0.0940954
1413393244205760512,0.180802,2.64882,1.67111,0.0165739,0.807132,-0.00210645,0.590135,-0.0899875,0.0414265,0.00751731,-0.000758013,0.0203685,0.0631635,-0.0460164,0.0485028,0.0977604
1413393244255760384,0.176215,2.65133,1.67197,0.0141947,0.807734,0.00245866,0.589371,-0.100718,0.0556946,0.0124964,-0.000780202,0.0203736,0.0631827,-0.0359136,0.052478,0.105078
1413393244305760512,0.171045,2.65476,1.67267,0.0110334,0.808417,0.00828621,0.588448,-0.109266,0.0742353,0.0244397,-0.000773141,0.0203694,0.0632156,-0.0398944,0.0540476,0.0944939
1413393244355760384,0.165093,2.65858,1.67337,0.0061094,0.808976,0.01487,0.587622,-0.112834,0.102796,0.0102554,-0.000772374,0.0203676,0.0632443,-0.0444096,0.0553394,0.0828698
1413393244405760512,0.159068,2.66356,1.67336,0.00111793,0.808129,0.0203284,0.588653,-0.117543,0.0988049,-0.0261658,-0.000779343,0.0203781,0.0632617,-0.0555871,0.0482348,0.0771059
1413393244455760384,0.152549,2.66864,1.67155,-0.00448225,0.806751,0.0242817,0.590376,-0.131188,0.115178,-0.0661125,-0.000775491,0.0203752,0.0632936,-0.0534837,0.0462911,0.0783442
1413393244505760512,0.145748,2.67428,1.66674,-0.0102485,0.806008,0.0277133,0.591166,-0.140572,0.125754,-0.126364,-0.000777611,0.0203669,0.06332,-0.052128,0.0539392,0.0767643
1413393244555760384,0.138378,2.68033,1.65834,-0.0154052,0.805016,0.0301452,0.592287,-0.157362,0.113482,-0.188573,-0.000784463,0.0203695,0.0633313,-0.0694801,0.0506557,0.0652428
1413393244605760512,0.130355,2.68625,1.64795,-0.0199801,0.805274,0.032358,0.591682,-0.162777,0.123739,-0.217592,-0.000798869,0.0203764,0.0633542,-0.0952916,0.0439722,0.0602234
1413393244655760384,0.121688,2.69212,1.63808,-0.0242938,0.805569,0.0340692,0.591023,-0.160869,0.123526,-0.182304,-0.000787501,0.0203793,0.0633895,-0.114212,0.058253,0.0658502
1413393244705760512,0.11293,2.69799,1.63179,-0.0273745,0.804951,0.0359654,0.591617,-0.19946,0.116622,-0.108179,-0.000783402,0.0203843,0.0634034,-0.123636,0.0641782,0.0717874
1413393244755760384,0.102344,2.70358,1.6264,-0.0324321,0.805675,0.0352223,0.59042,-0.216044,0.110068,-0.0902337,-0.000781399,0.0203937,0.0634418,-0.106118,0.0695274,0.0877878
1413393244805760512,0.0912988,2.7088,1.62374,-0.0376522,0.805535,0.0338401,0.590382,-0.221553,0.10781,-0.0173359,-0.000773044,0.0204088,0.0634654,-0.102107,0.0705531,0.097747
1413393244855760384,0.0798851,2.71386,1.62454,-0.0414007,0.806226,0.0328996,0.589239,-0.24294,0.103299,0.072179,-0.000780493,0.020404,0.0634838,-0.0931499,0.066949,0.101455
1413393244905760512,0.0685922,2.71851,1.63072,-0.0440204,0.806137,0.0316375,0.589241,-0.221102,0.0805897,0.158375,-0.000784824,0.0204171,0.0635103,-0.0809709,0.071942,0.105538
1413393244955760384,0.0575032,2.72216,1.64054,-0.0442323,0.806026,0.0318632,0.589364,-0.244315,0.0654829,0.222058,-0.000786615,0.020433,0.0635191,-0.0806295,0.0690633,0.0994816
1413393245005760512,0.044919,2.72473,1.65038,-0.0418063,0.807536,0.0334565,0.587383,-0.254623,0.0438217,0.203829,-0.000791853,0.0204394,0.0635571,-0.0770188,0.0665528,0.102415
1413393245055760384,0.0319032,2.72651,1.65962,-0.0398846,0.809833,0.0339074,0.58432,-0.263503,0.031177,0.167671,-0.000791347,0.0204313,0.0635822,-0.0706562,0.0711738,0.0949018
1413393245105760512,0.0187963,2.72773,1.66697,-0.0374587,0.812577,0.0351894,0.580584,-0.262386,0.023658,0.112585,-0.000794054,0.0204272,0.0636124,-0.0657557,0.0769836,0.0960658
1413393245155760384,0.00621041,2.72824,1.67115,-0.0361905,0.81561,0.0351002,0.576401,-0.253713,0.00880449,0.0631832,-0.000795944,0.0204167,0.0636342,-0.0656271,0.0779932,0.0975466
1413393245205760512,-0.00638584,2.72821,1.67309,-0.0345822,0.818638,0.0353558,0.572177,-0.247732,0.00175411,0.0178288,-0.000789971,0.0204154,0.0636528,-0.0668829,0.095758,0.0955057
1413393245255760384,-0.018792,2.72804,1.67256,-0.0324871,0.819936,0.0363354,0.570377,-0.24216,-0.00529685,-0.0377056,-0.000794072,0.0204211,0.0636834,-0.0656233,0.0921651,0.0905532
1413393245305760512,-0.0303232,2.72771,1.66901,-0.0304304,0.82072,0.0372851,0.5693,-0.225278,-0.00111705,-0.0948998,-0.000796473,0.0204165,0.0637139,-0.062769,0.0879243,0.0895866
1413393245355760384,-0.040983,2.72772,1.66301,-0.0278946,0.820274,0.0387886,0.569973,-0.210779,0.00911292,-0.137715,-0.00079625,0.0204113,0.0637416,-0.065281,0.0776294,0.0892964
1413393245405760512,-0.0513002,2.7281,1.65582,-0.0258978,0.819405,0.039691,0.571252,-0.191292,0.00268183,-0.170453,-0.00080665,0.0204378,0.0637612,-0.0706313,0.0695161,0.0725349
1413393245455760384,-0.0640008,2.72831,1.64902,-0.0231178,0.816935,0.0412388,0.574789,-0.189108,0.00477578,-0.210885,-0.000794676,0.0203864,0.0638464,-0.0755697,0.0688367,0.0413333
1413393245505760512,-0.0734881,2.72838,1.63752,-0.0210418,0.815468,0.0424641,0.576859,-0.178304,0.0108761,-0.237198,-0.000787164,0.0203737,0.0638855,-0.076689,0.0771582,0.0509943
1413393245555760384,-0.0823203,2.72863,1.62587,-0.0187602,0.813525,0.0434447,0.579601,-0.168667,0.00784122,-0.232543,-0.000794336,0.0203755,0.0639063,-0.0740698,0.0787769,0.0476382
1413393245605760512,-0.0908612,2.72945,1.61449,-0.0165659,0.811691,0.0440846,0.582186,-0.16807,0.0231647,-0.22948,-0.000796866,0.0203646,0.0639336,-0.0674095,0.0823893,0.0421528
1413393245655760384,-0.0993026,2.7307,1.60355,-0.0145776,0.810054,0.0446679,0.58447,-0.174494,0.0398508,-0.220323,-0.000793434,0.0203644,0.0639605,-0.0708004,0.0831757,0.0310947
1413393245705760512,-0.108308,2.73279,1.59347,-0.0116853,0.808991,0.0452739,0.585959,-0.173157,0.0510941,-0.199424,-0.000793565,0.0203566,0.0639931,-0.0721567,0.0819109,0.0251429
1413393245755760384,-0.117024,2.73546,1.58374,-0.00974609,0.809381,0.0445638,0.58551,-0.175487,0.0665727,-0.190266,-0.00080416,0.0203696,0.0640076,-0.0757902,0.0759472,0.0302227
