#timestamp, p_RS_R_x [m], p_RS_R_y [m], p_RS_R_z [m], q_RS_w [], q_RS_x [], q_RS_y [], q_RS_z [], v_RS_R_x [m s^-1], v_RS_R_y [m s^-1], v_RS_R_z [m s^-1], b_w_RS_S_x [rad s^-1], b_w_RS_S_y [rad s^-1], b_w_RS_S_z [rad s^-1], b_a_RS_S_x [m s^-2], b_a_RS_S_y [m s^-2], b_a_RS_S_z [m s^-2]
1413393216155760384,-1.07968,0.491998,1.3301,0.601041,-0.00124635,-0.799213,0.00274029,-0.0117031,-0.00956815,0.00384705,-0.000227024,0.00478432,0.016104,-0.00377004,2.13134e-05,0.00115459
1413393216205760512,-1.04566,0.773784,1.33332,0.600778,0.00163546,-0.7994,0.0048283,-0.0117852,-0.00543647,0.000140256,-0.000184158,0.0048554,0.0163844,-0.0055126,3.77564e-05,0.0016864
1413393216255760384,-1.14753,0.75697,1.32956,0.599543,0.00803559,-0.800243,0.00977844,-0.0158438,-0.00380719,0.00448286,-0.000188065,0.00495346,0.0166436,-0.0072501,5.08374e-05,0.00219767
1413393216305760512,-1.12208,0.791956,1.39629,0.597253,0.0469646,-0.799731,0.0389094,-0.00925535,-0.00971108,0.00525519,-0.000215538,0.0050294,0.0169708,-0.0084608,0.000136187,0.00262543
1413393216355760384,-1.15635,0.800012,1.36512,0.597263,0.035509,-0.80067,0.030704,0.000832368,0.000183854,0.00169657,-0.00019423,0.00515473,0.0171418,-0.00991577,2.10258e-05,0.00278393
1413393216405760512,-1.16597,0.810936,1.3333,0.596452,0.0422912,-0.800734,0.0358035,0.00108093,-0.010951,-0.00331155,-0.00018266,0.00521545,0.0173793,-0.0109108,8.4875e-05,0.00336673
1413393216455760384,-1.16828,0.815904,1.2377,0.59639,0.0453499,-0.800528,0.0376413,-0.00430159,-0.00461482,0.0131291,-0.000217231,0.00526043,0.0176127,-0.01203,0.000120556,0.00397785
1413393216505760512,-1.17525,0.822694,1.12333,0.594398,0.0493376,-0.801646,0.0402628,0.00233789,0.00745655,0.0132605,-0.000152474,0.00526894,0.0178477,-0.0130016,0.000200184,0.00488745
1413393216555760384,-1.15423,0.790192,1.69276,0.594976,0.0262312,-0.803002,0.0224229,0.00160241,0.0121202,-0.0214361,-0.000226407,0.00527744,0.0179634,-0.0166772,-0.00029714,0.00198182
1413393216605760512,-1.19571,0.83888,0.769525,0.592915,0.0504625,-0.80259,0.0418997,-0.000524638,0.0189941,-0.0133219,-0.000213588,0.00533725,0.0183186,-0.0154672,0.000151174,0.00638333
1413393216655760384,-1.14144,0.776386,1.25709,0.595385,0.0209501,-0.802937,0.0192342,0.00109053,0.00629033,0.021732,-0.000217429,0.00535805,0.0184675,-0.0200165,-2.7817e-05,0.000908383
1413393216705760512,-1.12794,0.760184,1.37879,0.59626,0.0150654,-0.802558,0.0121962,0.016546,0.0184569,0.0337697,-0.000273766,0.00541201,0.0186357,-0.0217673,0.000173682,0.00104623
1413393216755760384,-1.11576,0.746783,1.15696,0.596751,0.00996959,-0.80235,0.00482316,0.0104773,0.0154182,0.0473438,-0.000300691,0.0054489,0.0189044,-0.0237193,0.000178611,-0.000538312
1413393216805760512,-1.10192,0.733859,1.22318,0.597652,0.00492861,-0.801739,-0.00163304,0.0187977,0.00506792,0.0879606,-0.000296792,0.00554091,0.0191432,-0.0258953,0.000334073,-0.00299181
1413393216855760384,-1.08989,0.723094,0.974555,0.598698,0.00052299,-0.80094,-0.00746139,0.0270851,0.00704312,0.094262,-0.000288465,0.00559482,0.0194039,-0.0280786,0.000394862,-0.00568605
1413393216905760512,-1.08161,0.715191,0.659703,0.600668,-0.00378769,-0.799386,-0.0129108,0.0381204,-0.00600133,0.129782,-0.000276589,0.00565829,0.0196335,-0.0303519,0.000186937,-0.00879406
1413393216955760384,-1.07289,0.710533,0.18282,0.60077,-0.00493077,-0.799207,-0.017867,0.0456337,-0.00772215,0.143038,-0.000258232,0.00576131,0.0198434,-0.0323605,3.39932e-05,-0.0119427
1413393217005760512,-1.1317,0.771313,1.23592,0.599457,0.0198805,-0.800159,-0.00149458,0.0615559,-0.0132956,0.159844,-0.000341093,0.00590382,0.0201234,-0.0295108,-0.000375443,0.00106758
1413393217055760384,-1.0635,0.704523,0.248867,0.598293,-0.00562012,-0.800965,-0.0216543,0.0686899,-0.0425636,0.224687,-0.00027579,0.00595398,0.0203482,-0.0353651,-0.00057553,-0.0156669
1413393217105760512,-1.05552,0.699154,0.245763,0.597407,-0.00668856,-0.801592,-0.0225928,0.0826658,-0.0499698,0.272305,-0.000263804,0.00601332,0.0205639,-0.0369567,-0.000914039,-0.0186165
1413393217155760384,-1.05052,0.693566,0.454521,0.596223,-0.00765965,-0.802463,-0.0226486,0.0890543,-0.0727894,0.275847,-0.000257794,0.00607259,0.0207988,-0.0383072,-0.00146822,-0.0214046
1413393217205760512,-1.04314,0.68874,0.5245,0.595602,-0.00806307,-0.802914,-0.0228618,0.0990184,-0.0869748,0.262727,-0.000229359,0.00612306,0.0210054,-0.0393751,-0.00154139,-0.0234788
1413393217255760384,-1.03978,0.684528,0.607916,0.595876,-0.00723818,-0.802686,-0.0239701,0.10096,-0.0952288,0.244215,-0.000191088,0.00614586,0.021253,-0.0401234,-0.00151607,-0.0246289
1413393217305760512,-1.03637,0.68105,0.578004,0.595417,-0.00641134,-0.803009,-0.0247767,0.110253,-0.10987,0.205932,-0.00022836,0.00622292,0.0214694,-0.0415968,-0.00154378,-0.0260849
1413393217355760384,-1.03473,0.677808,0.626771,0.594609,-0.0052936,-0.803637,-0.024091,0.120051,-0.127773,0.171328,-0.000244076,0.00626294,0.0216677,-0.0428544,-0.00209165,-0.0269397
1413393217405760512,-1.03058,0.673006,0.795971,0.593671,-0.0041654,-0.804341,-0.0239473,0.138011,-0.133211,0.157718,-0.000255194,0.00629569,0.0218844,-0.0442079,-0.00209775,-0.0279099
1413393217455760384,-1.02392,0.665812,0.977138,0.592752,-0.00399798,-0.805033,-0.0234874,0.147738,-0.157655,0.139845,-0.00025909,0.00638848,0.0221178,-0.0456266,-0.00195067,-0.0283238
1413393217505760512,-1.03854,0.687088,0.931158,0.592149,0.00687759,-0.805635,-0.0162616,0.154317,-0.174404,0.127294,-0.000333975,0.00645298,0.0222886,-0.0447209,-0.000237366,-0.0224543
1413393217555760384,-1.01672,0.661719,0.921915,0.592375,0.00100006,-0.80539,-0.0209628,0.172906,-0.177849,0.102216,-0.000344071,0.00651966,0.0225419,-0.0475865,-0.000992359,-0.028422
1413393217605760512,-1.00903,0.653367,0.953744,0.592531,0.00194425,-0.80527,-0.0210785,0.175432,-0.211956,0.0828841,-0.000347842,0.00659007,0.022705,-0.0485234,-0.000900846,-0.0289096
1413393217655760384,-1.00048,0.642765,0.999271,0.592487,0.00222931,-0.805311,-0.0206853,0.186453,-0.217894,0.0898605,-0.000346217,0.00664187,0.0228784,-0.0491159,-0.000768867,-0.0299337
1413393217705760512,-0.991631,0.63237,0.996557,0.592569,0.00222963,-0.805248,-0.0208198,0.191147,-0.237714,0.132474,-0.000384197,0.00670166,0.0231117,-0.0498967,-0.000650237,-0.0304238
1413393217755760384,-0.981962,0.619804,1.00992,0.592897,0.00237194,-0.805011,-0.0206191,0.198703,-0.268129,0.176756,-0.000397804,0.00681092,0.0233005,-0.0508625,-0.000402928,-0.0312402
1413393217805760512,-0.971901,0.606484,1.02652,0.592766,0.00217374,-0.805117,-0.0202768,0.205802,-0.273502,0.208634,-0.000379808,0.00683284,0.0234604,-0.0514353,-0.000271616,-0.032507
1413393217855760384,-0.961513,0.592399,1.03866,0.592779,0.0014464,-0.80512,-0.019819,0.214766,-0.286267,0.232551,-0.000446931,0.00690204,0.0237349,-0.0520197,0.000155341,-0.0330637
1413393217905760512,-0.950916,0.577442,1.05289,0.592886,0.00142274,-0.805055,-0.0192818,0.21461,-0.31286,0.270177,-0.000433809,0.00697127,0.0238972,-0.0522014,0.000392333,-0.0345055
1413393217955760384,-0.940032,0.561768,1.0687,0.593573,0.00115174,-0.80455,-0.0192074,0.224014,-0.313682,0.289475,-0.000454907,0.00704878,0.0241481,-0.0531344,0.000526809,-0.0351725
1413393218005760512,-0.928661,0.545536,1.08348,0.593283,3.81106e-05,-0.804791,-0.0180761,0.230505,-0.333275,0.266087,-0.00047579,0.00714792,0.0243804,-0.0537988,0.000595442,-0.0359409
1413393218055760384,-0.916719,0.528276,1.10039,0.593761,-0.00206305,-0.804497,-0.0151148,0.233891,-0.345203,0.214117,-0.000475238,0.00716462,0.0244773,-0.0537097,0.000915128,-0.0365534
1413393218105760512,-0.904793,0.511055,1.10509,0.593377,-0.00474275,-0.804823,-0.0119227,0.238408,-0.336769,0.186734,-0.000484349,0.0072033,0.0247033,-0.0542614,0.00105377,-0.0375551
1413393218155760384,-0.892843,0.493589,1.11786,0.593333,-0.00871146,-0.804882,-0.00669046,0.24093,-0.355567,0.136042,-0.000510242,0.00721797,0.024918,-0.0549663,0.00162783,-0.0379977
1413393218205760512,-0.880227,0.475711,1.12433,0.593585,-0.0124499,-0.804675,-0.000486594,0.250845,-0.350445,0.0843419,-0.00048225,0.0072596,0.0250406,-0.0557603,0.00195221,-0.0388521
1413393218255760384,-0.866983,0.458677,1.12508,0.592734,-0.0171271,-0.805198,0.00535343,0.267389,-0.316969,0.0354269,-0.000438964,0.00729553,0.0252311,-0.0567258,0.00229901,-0.0396442
1413393218305760512,-0.853772,0.442607,1.12391,0.591362,-0.0207079,-0.80608,0.00982968,0.2608,-0.317869,-0.000348506,-0.00053907,0.00739304,0.0254568,-0.0584374,0.00273699,-0.0399334
1413393218355760384,-0.840002,0.427199,1.1235,0.591133,-0.0205427,-0.806249,0.0101662,0.270406,-0.28797,-0.040315,-0.000457434,0.00738105,0.0255984,-0.0594657,0.00317259,-0.0405847
1413393218405760512,-0.826081,0.413133,1.13179,0.591924,-0.0183676,-0.805767,0.00540314,0.277884,-0.249022,-0.0659492,-0.000454819,0.00744618,0.0258039,-0.0610092,0.00356813,-0.0407871
1413393218455760384,-0.81192,0.400293,1.12796,0.592165,-0.0151549,-0.805675,0.000149845,0.281523,-0.254079,-0.0957225,-0.000542662,0.00751619,0.026016,-0.062618,0.00374226,-0.0411459
1413393218505760512,-0.797364,0.388087,1.12247,0.592975,-0.0118642,-0.805118,-0.0049547,0.290467,-0.236962,-0.0900408,-0.000497604,0.00757742,0.0261784,-0.0644753,0.00410783,-0.041483
1413393218555760384,-0.782601,0.376476,1.11766,0.593478,-0.00900158,-0.804731,-0.0105129,0.299735,-0.219684,-0.0884076,-0.000509118,0.00761472,0.0263774,-0.0661954,0.0047271,-0.0423794
1413393218605760512,-0.767383,0.364535,1.11152,0.594582,-0.0064424,-0.803889,-0.0139261,0.301406,-0.249447,-0.0805651,-0.000551906,0.00769966,0.0265412,-0.0678752,0.00531126,-0.0432796
1413393218655760384,-0.751949,0.352281,1.10628,0.595316,-0.00469607,-0.803315,-0.0162219,0.312568,-0.242038,-0.0795235,-0.000546492,0.00775312,0.0266901,-0.0695182,0.00612939,-0.044142
1413393218705760512,-0.736204,0.340001,1.10305,0.595419,-0.0053147,-0.803228,-0.016549,0.320279,-0.240149,-0.065445,-0.000558121,0.00780497,0.0268448,-0.0709694,0.00718628,-0.0446662
1413393218755760384,-0.719867,0.327079,1.09279,0.593896,-0.00428463,-0.804343,-0.0173872,0.323229,-0.269936,-0.0606798,-0.000600414,0.00787552,0.0270154,-0.0725164,0.00787672,-0.0460962
1413393218805760512,-0.703385,0.314042,1.0894,0.589684,-0.00516513,-0.807461,-0.0159129,0.334319,-0.257853,-0.056869,-0.000599691,0.00797038,0.0272279,-0.0743346,0.00918345,-0.0471544
1413393218855760384,-0.686629,0.300756,1.08967,0.582995,-0.00891384,-0.812336,-0.0121774,0.331643,-0.258724,-0.0474819,-0.00062136,0.00807766,0.0273744,-0.0759666,0.0101642,-0.0481991
1413393218905760512,-0.670334,0.287355,1.07795,0.57618,-0.0114625,-0.8172,-0.00834663,0.319009,-0.274152,-0.0443047,-0.000676376,0.00807648,0.0275598,-0.0764781,0.0122413,-0.0484609
1413393218955760384,-0.654938,0.274785,1.06663,0.570413,-0.0136116,-0.821226,-0.00560972,0.305109,-0.251547,-0.0173705,-0.000660282,0.00811117,0.0276414,-0.0768244,0.0141124,-0.0490567
1413393219005760512,-0.640662,0.262853,1.05614,0.566759,-0.0155305,-0.823728,-0.00399592,0.281044,-0.241665,0.00504973,-0.000707465,0.00817997,0.0278625,-0.0778442,0.016039,-0.0484989
1413393219055760384,-0.627508,0.25072,1.06913,0.564878,-0.0163198,-0.825011,-0.00198323,0.250117,-0.242637,0.0271502,-0.000703042,0.00822281,0.0279541,-0.0784221,0.0175766,-0.0503025
1413393219105760512,-0.615979,0.239509,1.08396,0.565261,-0.0159911,-0.824755,-0.00182086,0.223824,-0.222295,0.0564848,-0.00068881,0.0082386,0.0281326,-0.079337,0.0191511,-0.0517924
1413393219155760384,-0.605446,0.228308,1.0986,0.56643,-0.0162375,-0.82395,-0.00088889,0.194717,-0.212101,0.0639004,-0.000737264,0.00833607,0.0283206,-0.0810191,0.0203134,-0.0523748
1413393219205760512,-0.596386,0.217911,1.11146,0.567293,-0.01572,-0.823366,-0.000279884,0.169413,-0.21043,0.0808167,-0.000797918,0.00836171,0.0284468,-0.0818139,0.0215656,-0.0531609
1413393219255760384,-0.58823,0.207803,1.11504,0.568928,-0.0151816,-0.822247,0.000495225,0.147838,-0.197664,0.10365,-0.000726768,0.0084347,0.0285833,-0.0826781,0.0236831,-0.0549876
1413393219305760512,-0.581279,0.198441,1.10771,0.570082,-0.014033,-0.821468,0.000906367,0.11892,-0.179605,0.111201,-0.000763614,0.00848873,0.0287837,-0.0831377,0.0255012,-0.0561441
1413393219355760384,-0.576166,0.190408,1.10957,0.570425,-0.0135695,-0.821236,0.00174061,0.0859517,-0.177257,0.12017,-0.00074803,0.00852771,0.0289512,-0.0839122,0.0275391,-0.0575059
1413393219405760512,-0.572354,0.182674,1.09822,0.570941,-0.0135868,-0.820871,0.0035472,0.0621936,-0.163922,0.115842,-0.000695355,0.00865525,0.0290978,-0.0852733,0.0295056,-0.0589508
1413393219455760384,-0.57012,0.175907,1.10062,0.572097,-0.0130888,-0.820073,0.00371969,0.0260156,-0.147553,0.0721944,-0.000736015,0.00874161,0.0292764,-0.0859031,0.0309281,-0.0604015
1413393219505760512,-0.587785,0.268411,0.791688,0.571593,0.0129176,-0.820143,0.0219017,0.0182194,-0.142267,0.0345342,-0.000847185,0.00886179,0.0295405,-0.0792933,0.0375115,-0.0373072
1413393219555760384,-0.58757,0.260248,0.834,0.573238,0.0130545,-0.818986,0.0221357,-0.0092439,-0.130868,0.00224701,-0.000777027,0.00889238,0.0296796,-0.0800874,0.0390833,-0.0387772
1413393219605760512,-0.587785,0.251501,0.843893,0.574912,0.0126782,-0.817837,0.0214097,-0.0232642,-0.119144,-0.0018226,-0.000818493,0.00894808,0.0298562,-0.0808555,0.0405273,-0.0408181
1413393219655760384,-0.587632,0.238101,0.85572,0.577263,0.0110353,-0.816228,0.0204386,-0.0399541,-0.114233,0.029024,-0.000764535,0.00900462,0.0300104,-0.0822233,0.0420021,-0.0445513
1413393219705760512,-0.585313,0.21037,1.0329,0.580478,0.00615651,-0.814098,0.0158891,-0.0581746,-0.100004,0.0863954,-0.000742063,0.00911523,0.0301889,-0.0848657,0.0425236,-0.0507589
1413393219755760384,-0.605268,0.270996,0.715678,0.581825,0.0227051,-0.812597,0.0255223,-0.0743337,-0.0938974,0.157251,-0.000828024,0.00913923,0.0303302,-0.0751834,0.039453,-0.0235328
1413393219805760512,-0.584224,0.182384,0.787282,0.586916,0.00273755,-0.809603,0.00802279,-0.0664578,-0.0833375,0.206421,-0.000770439,0.00921457,0.0304733,-0.0861767,0.0435405,-0.053391
1413393219855760384,-0.587183,0.182529,0.725844,0.587943,0.00383355,-0.808857,0.00765067,-0.0596887,-0.0750007,0.313436,-0.000750562,0.00925186,0.0306829,-0.0862009,0.0444379,-0.051883
1413393219905760512,-0.59214,0.183736,0.757992,0.589303,0.00625269,-0.807853,0.00747964,-0.0590833,-0.0766934,0.333198,-0.000769653,0.00932033,0.0308144,-0.0864684,0.045846,-0.0518048
1413393219955760384,-0.594754,0.185219,0.781546,0.590673,0.00931617,-0.806826,0.00714775,-0.063997,-0.0706404,0.332243,-0.000761934,0.0093273,0.0309928,-0.0868946,0.0471968,-0.0520543
1413393220005760512,-0.61761,0.247236,0.716533,0.590307,0.0257117,-0.806562,0.0182821,-0.0529657,-0.0714099,0.290636,-0.000831424,0.00938449,0.0311868,-0.0781155,0.0472807,-0.0254263
1413393220055760384,-0.601161,0.186253,0.760224,0.593138,0.0120702,-0.804976,0.00749004,-0.034475,-0.075321,0.235849,-0.000787829,0.00943688,0.0313276,-0.0882043,0.0497504,-0.0509071
1413393220105760512,-0.616256,0.235798,0.568723,0.592694,0.0242232,-0.804898,0.0163323,-0.0280739,-0.070588,0.211677,-0.000842308,0.00945793,0.0314688,-0.0817207,0.0518216,-0.0310711
1413393220155760384,-0.611085,0.207505,0.747721,0.593944,0.0195947,-0.804184,0.0116375,-0.0206518,-0.0793651,0.193614,-0.000761262,0.00950886,0.0315918,-0.0868906,0.053606,-0.0444756
1413393220205760512,-0.61282,0.206029,0.751202,0.594581,0.0206831,-0.803689,0.0114552,-0.0173547,-0.0828007,0.21797,-0.000764022,0.00951945,0.0317357,-0.0869276,0.0546701,-0.0431648
1413393220255760384,-0.613701,0.202175,0.774258,0.595188,0.0198811,-0.803258,0.0115336,-0.0134179,-0.0756837,0.219041,-0.000757231,0.00957195,0.0318497,-0.0876877,0.0556857,-0.0431659
1413393220305760512,-0.61485,0.201132,0.757972,0.595626,0.0215741,-0.802898,0.0109364,-0.000804387,-0.093275,0.225896,-0.000766836,0.00960892,0.0320269,-0.0879926,0.0568318,-0.0414472
1413393220355760384,-0.614737,0.19701,0.751106,0.596136,0.021525,-0.802516,0.0112727,0.00553186,-0.0952597,0.231438,-0.000755854,0.0096426,0.0322092,-0.0888081,0.0581098,-0.0409973
1413393220405760512,-0.61413,0.192442,0.764878,0.596203,0.0210549,-0.802477,0.0113502,0.0150816,-0.0912307,0.247452,-0.000710991,0.00968331,0.0322723,-0.0889736,0.0604574,-0.0414977
1413393220455760384,-0.613098,0.188127,0.755567,0.595498,0.0208963,-0.803006,0.0112742,0.0323412,-0.109958,0.2432,-0.000715766,0.00967709,0.0324396,-0.0897497,0.0615737,-0.0406926
1413393220505760512,-0.610475,0.178053,0.82266,0.593717,0.0193168,-0.804366,0.0110629,0.0382731,-0.112222,0.230056,-0.000736535,0.0097867,0.0326601,-0.0926003,0.0612225,-0.041741
1413393220555760384,-0.608285,0.172,0.815637,0.592095,0.0187148,-0.805577,0.0109365,0.0514811,-0.106722,0.190349,-0.000792918,0.00970838,0.0325543,-0.0920093,0.0608735,-0.0414051
1413393220605760512,-0.608008,0.176822,0.745044,0.590938,0.0205071,-0.806356,0.0127162,0.0488221,-0.12073,0.132146,-0.000825903,0.00984246,0.0328526,-0.0915975,0.0622869,-0.0350603
1413393220655760384,-0.606112,0.173794,0.681198,0.591479,0.0210424,-0.805937,0.0132842,0.0500817,-0.125053,0.0758432,-0.000853769,0.00987753,0.0330414,-0.0923432,0.0626587,-0.0331928
1413393220705760512,-0.599865,0.150329,0.853677,0.592411,0.0163691,-0.805396,0.0108611,0.06053,-0.109042,0.0236778,-0.000764868,0.00996937,0.033104,-0.096428,0.0623188,-0.043113
1413393220755760384,-0.598463,0.151438,0.779373,0.591825,0.016174,-0.805772,0.0146136,0.0550266,-0.132906,-0.0259854,-0.000823693,0.00997562,0.0332471,-0.0960307,0.0640123,-0.0391652
1413393220805760512,-0.596075,0.148829,0.76091,0.589483,0.01444,-0.807426,0.0190858,0.0647416,-0.121962,-0.0182966,-0.000808912,0.0100647,0.0333753,-0.0962725,0.0657486,-0.0381931
1413393220855760384,-0.592823,0.143392,0.76987,0.587759,0.0113399,-0.808638,0.0227304,0.0675269,-0.0904151,0.0332204,-0.000841093,0.0101387,0.0335241,-0.0967075,0.0664138,-0.0387263
1413393220905760512,-0.58947,0.138646,0.770477,0.586644,0.0100155,-0.809393,0.0251625,0.0745155,-0.109179,0.0865917,-0.000799777,0.0101799,0.0336727,-0.0961692,0.0682526,-0.0401627
1413393220955760384,-0.586466,0.134231,0.769469,0.585428,0.00911135,-0.810245,0.0263397,0.0624955,-0.0791216,0.193227,-0.000805779,0.010212,0.0338129,-0.0958648,0.069474,-0.0408475
1413393221005760512,-0.583292,0.130324,0.77968,0.586,0.00812017,-0.809889,0.0248716,0.0513333,-0.0401211,0.21966,-0.000781536,0.0102184,0.0339508,-0.0953836,0.0707093,-0.041852
1413393221055760384,-0.580422,0.125657,0.815588,0.585524,0.0074938,-0.81027,0.0238479,0.0467845,-0.0503488,0.250384,-0.000775503,0.010272,0.0340688,-0.0947761,0.0712924,-0.0440418
1413393221105760512,-0.578325,0.119341,0.975442,0.584532,0.00700586,-0.811005,0.0233372,0.0361511,-0.0274924,0.263867,-0.000735535,0.0102857,0.0341979,-0.0941636,0.0717517,-0.0459017
1413393221155760384,-0.585727,0.165208,0.628141,0.58249,0.0165951,-0.812122,0.0298036,0.0352284,0.000108334,0.281228,-0.000771258,0.0102966,0.0343323,-0.0836769,0.0820663,-0.0191073
1413393221205760512,-0.582956,0.177385,0.339531,0.581079,0.0187698,-0.813083,0.0298674,0.0213115,-0.00970424,0.288493,-0.000753074,0.0103103,0.0344596,-0.0827745,0.0856017,-0.0161143
1413393221255760384,-0.57006,0.126639,1.00906,0.581767,0.0100349,-0.812991,0.022218,0.0157304,0.0086009,0.283493,-0.000733597,0.0103312,0.0345913,-0.0966495,0.0818645,-0.0571523
1413393221305760512,-0.579451,0.184615,0.7368,0.578297,0.0242598,-0.814916,0.0299583,0.00655,0.0312739,0.27084,-0.000808709,0.0103476,0.0347198,-0.0856158,0.0928595,-0.0248755
1413393221355760384,-0.579525,0.184526,0.808655,0.576589,0.0246799,-0.816131,0.0294255,-0.0104737,0.0177309,0.306031,-0.000820304,0.0103673,0.0348086,-0.0850668,0.0936612,-0.0257824
1413393221405760512,-0.58013,0.185252,0.817515,0.575153,0.0252977,-0.817172,0.0280923,-0.0266306,0.0270601,0.308391,-0.000808921,0.0104582,0.0349885,-0.0849398,0.094217,-0.0257221
1413393221455760384,-0.582092,0.186019,0.826058,0.574849,0.026071,-0.817448,0.0254613,-0.0428618,0.0389949,0.287409,-0.000842938,0.0104401,0.0350862,-0.0849179,0.0950713,-0.0273983
1413393221505760512,-0.584689,0.187534,0.787606,0.574161,0.0264433,-0.81797,0.023789,-0.0575707,0.0262588,0.222811,-0.000831083,0.0105192,0.0351851,-0.0860689,0.0954155,-0.0284906
1413393221555760384,-0.588083,0.185395,0.843362,0.573789,0.0279272,-0.818277,0.0202308,-0.0714695,0.0285825,0.171515,-0.000802151,0.0106,0.0353132,-0.0872651,0.0962223,-0.0324148
1413393221605760512,-0.592052,0.182944,0.892883,0.574114,0.0284097,-0.818088,0.0178396,-0.099481,0.0228723,0.152393,-0.000766966,0.0105928,0.0354276,-0.0881132,0.0971571,-0.0371046
1413393221655760384,-0.590668,0.166214,0.921328,0.576245,0.02432,-0.816801,0.0136529,-0.115392,0.000914983,0.155761,-0.000761086,0.0105356,0.0354297,-0.0973362,0.102248,-0.0689019
1413393221705760512,-0.595855,0.16481,0.934995,0.579474,0.0244167,-0.814523,0.0128995,-0.124271,0.00411982,0.167374,-0.000791603,0.0106053,0.0356122,-0.0987196,0.102682,-0.0727591
1413393221755760384,-0.601544,0.165019,0.942851,0.582935,0.0244187,-0.812036,0.0137356,-0.131338,-0.00637116,0.160853,-0.000765667,0.0108498,0.0360968,-0.100683,0.105304,-0.0746188
1413393221805760512,-0.607618,0.16404,0.953656,0.586164,0.0252454,-0.809672,0.0143528,-0.130273,-0.0266353,0.166036,-0.000688576,0.0107057,0.0359994,-0.0982443,0.106172,-0.0754413
1413393221855760384,-0.613862,0.162863,0.96556,0.588109,0.0258327,-0.808242,0.0143146,-0.128083,-0.0118667,0.158181,-0.000663439,0.0105388,0.035921,-0.0952466,0.106457,-0.0750101
1413393221905760512,-0.620095,0.161662,0.974542,0.589197,0.0257877,-0.807436,0.0151603,-0.126294,-0.0340818,0.147424,-0.000638961,0.0105574,0.0360855,-0.0951462,0.107452,-0.0759124
1413393221955760384,-0.625905,0.160112,0.981022,0.590609,0.026398,-0.806352,0.0167762,-0.122189,-0.0360618,0.126061,-0.000490921,0.0108505,0.0365891,-0.0988556,0.11192,-0.079206
1413393222005760512,-0.631242,0.158439,0.990102,0.590671,0.0261445,-0.806304,0.0172645,-0.118199,-0.020563,0.0756085,-0.000375553,0.0109877,0.0367195,-0.0994295,0.114601,-0.0800703
1413393222055760384,-0.636621,0.156708,0.995579,0.591283,0.0261812,-0.805834,0.0181995,-0.112241,-0.0375167,0.0171444,-0.000351061,0.0110681,0.0368168,-0.0998366,0.114763,-0.0796203
1413393222105760512,-0.642019,0.154593,0.997416,0.591857,0.0264195,-0.805369,0.0197136,-0.117046,-0.047905,-0.0443549,-0.000368398,0.0111046,0.036912,-0.0993323,0.114261,-0.0792262
1413393222155760384,-0.647947,0.152443,0.994377,0.591837,0.0272528,-0.805352,0.0198518,-0.115686,-0.0340865,-0.100485,-0.000328684,0.0112127,0.0370439,-0.0998527,0.11388,-0.0791077
1413393222205760512,-0.653489,0.150319,0.989483,0.591719,0.0277024,-0.805418,0.0200964,-0.107818,-0.0418372,-0.161632,-0.000334195,0.0112991,0.0372169,-0.0999657,0.112917,-0.0792032
1413393222255760384,-0.658572,0.148105,0.981378,0.590521,0.0281534,-0.806256,0.0210579,-0.0991597,-0.050785,-0.214885,-0.000363003,0.0113977,0.037358,-0.100846,0.112246,-0.0799046
1413393222305760512,-0.663324,0.145982,0.971147,0.58824,0.0291756,-0.8079,0.0205293,-0.0970061,-0.0343531,-0.247187,-0.000344819,0.0114618,0.0376206,-0.101403,0.111988,-0.0808762
1413393222355760384,-0.668094,0.143943,0.958594,0.584049,0.0291315,-0.810932,0.0206969,-0.0982454,-0.0465009,-0.247237,-0.000357109,0.0114642,0.0376936,-0.101761,0.111704,-0.0828724
1413393222405760512,-0.672992,0.141577,0.948735,0.580071,0.0295485,-0.813751,0.0213229,-0.103754,-0.0550686,-0.23013,-0.000429181,0.0115225,0.0378112,-0.102503,0.112103,-0.0851626
1413393222455760384,-0.678331,0.139107,0.944299,0.576814,0.031072,-0.816046,0.0197154,-0.111898,-0.0464976,-0.20523,-0.000410952,0.0115767,0.037935,-0.102141,0.113237,-0.0885381
1413393222505760512,-0.684317,0.13635,0.937487,0.574048,0.0308671,-0.817978,0.0206988,-0.130867,-0.0620465,-0.175611,-0.000417724,0.0115915,0.0380708,-0.102386,0.114523,-0.0904392
1413393222555760384,-0.690996,0.13335,0.929098,0.572823,0.0299743,-0.818791,0.0235836,-0.133768,-0.0691048,-0.11443,-0.000410045,0.0117255,0.03821,-0.103679,0.116519,-0.0922668
1413393222605760512,-0.698322,0.130195,0.92294,0.571784,0.0299784,-0.8195,0.0241705,-0.161974,-0.0621394,-0.0833297,-0.00035534,0.0118343,0.0384231,-0.103328,0.117554,-0.093664
1413393222655760384,-0.706761,0.126705,0.920656,0.570325,0.0300552,-0.820492,0.0248817,-0.188294,-0.0697245,-0.022579,-0.00031751,0.0118362,0.0384681,-0.101951,0.117216,-0.0953413
1413393222705760512,-0.716697,0.122657,0.931318,0.570613,0.0311543,-0.820271,0.024222,-0.208815,-0.0732565,0.0264862,-0.000323921,0.0118725,0.0385738,-0.101143,0.116017,-0.0954224
1413393222755760384,-0.727593,0.118285,0.944221,0.569129,0.0310548,-0.82127,0.0253746,-0.232143,-0.069193,0.0600176,-0.000372944,0.0118235,0.03865,-0.100706,0.112595,-0.0946678
1413393222805760512,-0.739566,0.114053,0.956942,0.567415,0.0312909,-0.822432,0.0258463,-0.255954,-0.0716681,0.109935,-0.000402689,0.0118142,0.038756,-0.100574,0.109917,-0.0938185
1413393222855760384,-0.752455,0.11028,0.964435,0.565363,0.0313612,-0.823817,0.0265896,-0.272209,-0.0710112,0.138269,-0.000434667,0.0118538,0.0388561,-0.100238,0.108657,-0.0944538
1413393222905760512,-0.766678,0.106686,0.962902,0.564298,0.0316512,-0.824485,0.0281131,-0.297401,-0.0699424,0.177862,-0.000418888,0.0118854,0.0389579,-0.100132,0.106582,-0.0948134
1413393222955760384,-0.782287,0.10317,0.969949,0.562674,0.0326224,-0.825532,0.0288409,-0.329435,-0.0707608,0.222955,-0.000432979,0.0119082,0.0390763,-0.0999855,0.106711,-0.0959065
1413393223005760512,-0.799317,0.100154,0.954822,0.563823,0.0336814,-0.824704,0.0288643,-0.34555,-0.0696678,0.232607,-0.000426916,0.0118618,0.0391631,-0.097912,0.105039,-0.0946763
1413393223055760384,-0.8174,0.0964198,0.962233,0.565793,0.0354081,-0.823265,0.0293129,-0.372199,-0.0740447,0.251845,-0.000406093,0.0118846,0.0393175,-0.0976035,0.104085,-0.0943752
1413393223105760512,-0.836551,0.092637,0.968815,0.567663,0.0363639,-0.821907,0.0300888,-0.396162,-0.0682278,0.251707,-0.00046929,0.0118726,0.0394837,-0.0969599,0.101956,-0.0943373
1413393223155760384,-0.856783,0.0891247,0.983629,0.569267,0.0369649,-0.820801,0.0292338,-0.421711,-0.0724586,0.253789,-0.000450668,0.0118686,0.0396192,-0.0971553,0.103155,-0.0971237
1413393223205760512,-0.878015,0.0846556,1.00736,0.571286,0.0396638,-0.819315,0.0279821,-0.438597,-0.0832314,0.258409,-0.000473891,0.0118349,0.0398308,-0.0965904,0.101519,-0.0999573
1413393223255760384,-0.900358,0.0805809,1.02044,0.572425,0.0405943,-0.818504,0.0270672,-0.456377,-0.0804563,0.218904,-0.000521925,0.0117741,0.039828,-0.0970717,0.10242,-0.101469
1413393223305760512,-0.92351,0.0760013,1.02939,0.574107,0.0410043,-0.817301,0.0271798,-0.472763,-0.0995284,0.182806,-0.000574722,0.0117457,0.0399122,-0.0973129,0.102503,-0.102769
1413393223355760384,-0.947549,0.0709058,1.03575,0.57513,0.0414227,-0.816576,0.0267159,-0.490502,-0.107304,0.0995215,-0.000620393,0.0117174,0.0400811,-0.0975457,0.102778,-0.10364
1413393223405760512,-0.972316,0.0654549,1.0382,0.576795,0.041689,-0.815387,0.0267063,-0.498901,-0.113814,-0.000756301,-0.000620397,0.0117175,0.0400813,-0.0977445,0.102908,-0.104282
1413393223455760384,-0.997679,0.0598189,1.03551,0.578911,0.0422805,-0.813888,0.025713,-0.511232,-0.119778,-0.116273,-0.00107067,0.0116512,0.0400669,-0.0978664,0.103436,-0.104733
1413393223505760512,-1.02336,0.0537062,1.02727,0.581614,0.042267,-0.811974,0.0252372,-0.518033,-0.124897,-0.214983,-0.00107065,0.0116513,0.0400671,-0.0979594,0.103477,-0.105299
1413393223555760384,-1.04926,0.0472289,1.01454,0.584367,0.0415499,-0.810029,0.0253329,-0.524746,-0.134438,-0.293476,-0.0012143,0.0115916,0.0400855,-0.0979845,0.103666,-0.105711
1413393223605760512,-1.07531,0.0406254,0.998772,0.587024,0.0412606,-0.808151,0.0243465,-0.512547,-0.133185,-0.364337,-0.00127149,0.0115701,0.0401002,-0.0979852,0.103992,-0.106371
1413393223655760384,-1.10065,0.0339789,0.982194,0.589283,0.0401813,-0.806591,0.0232781,-0.508628,-0.139886,-0.396505,-0.00135095,0.0116151,0.040148,-0.0988476,0.10546,-0.107118
1413393223705760512,-1.12581,0.0269928,0.973837,0.59028,0.0387716,-0.805957,0.0223452,-0.499911,-0.147043,-0.371831,-0.00130369,0.011818,0.0403672,-0.10093,0.109345,-0.107252
1413393223755760384,-1.15054,0.0196635,0.959693,0.591171,0.0374324,-0.805397,0.0212528,-0.4988,-0.158019,-0.298414,-0.00128881,0.0120223,0.0405083,-0.102532,0.112451,-0.10785
1413393223805760512,-1.17454,0.0119352,0.94526,0.592324,0.0351991,-0.804662,0.0208146,-0.48776,-0.177415,-0.24138,-0.00130342,0.0122856,0.0405463,-0.103833,0.115783,-0.11034
1413393223855760384,-1.1985,0.00333787,0.931548,0.591133,0.0336313,-0.805631,0.0197634,-0.464419,-0.187131,-0.145762,-0.00125961,0.0124087,0.0407756,-0.103913,0.117544,-0.111305
1413393223905760512,-1.22185,-0.00605638,0.924883,0.591532,0.0327992,-0.805436,0.0169719,-0.482896,-0.194703,-0.0782982,-0.00129302,0.0124475,0.040878,-0.103384,0.117796,-0.112187
1413393223955760384,-1.24554,-0.0164208,0.923408,0.591222,0.0311883,-0.805756,0.0155705,-0.479269,-0.215606,-0.0185233,-0.0013923,0.0123652,0.0408755,-0.102395,0.117093,-0.113145
1413393224005760512,-1.26937,-0.0273966,0.921745,0.592093,0.0294825,-0.805196,0.0147158,-0.47854,-0.22681,0.0161017,-0.00147017,0.0122889,0.0409988,-0.101495,0.116071,-0.113455
1413393224055760384,-1.29337,-0.0388694,0.918987,0.591427,0.0271404,-0.80577,0.0146027,-0.48003,-0.236584,0.00908322,-0.00147981,0.0123042,0.0412701,-0.101328,0.115395,-0.112846
1413393224105760512,-1.31728,-0.0510121,0.925405,0.59249,0.0245646,-0.80507,0.0146438,-0.471112,-0.256128,-0.0361976,-0.00144284,0.0124664,0.0415185,-0.1003,0.116983,-0.112453
1413393224155760384,-1.34063,-0.0643351,0.933298,0.593044,0.0234036,-0.804711,0.0138663,-0.463547,-0.262994,-0.0644154,-0.00141834,0.012388,0.0417963,-0.0996905,0.113972,-0.110953
1413393224205760512,-1.36351,-0.0782415,0.942885,0.592877,0.0250836,-0.804815,0.0118535,-0.450667,-0.274359,-0.129915,-0.00142075,0.0124114,0.0420367,-0.0990856,0.112106,-0.109828
1413393224255760384,-1.38627,-0.0922445,0.937741,0.593997,0.0241257,-0.804037,0.0105101,-0.445695,-0.284342,-0.160447,-0.00138228,0.0123783,0.042262,-0.0983712,0.109029,-0.108346
1413393224305760512,-1.40823,-0.106737,0.929135,0.595529,0.0226248,-0.802948,0.0104685,-0.430482,-0.29357,-0.224673,-0.00138773,0.012468,0.0423805,-0.0981772,0.107542,-0.107506
1413393224355760384,-1.42997,-0.121729,0.918921,0.595751,0.0238019,-0.802767,0.00895558,-0.431639,-0.297671,-0.274732,-0.00140759,0.012531,0.04249,-0.0973039,0.105891,-0.106945
1413393224405760512,-1.45137,-0.136876,0.907462,0.595514,0.022445,-0.802999,0.00725869,-0.426285,-0.297091,-0.317532,-0.00142268,0.0126495,0.0426473,-0.0971541,0.103946,-0.106153
1413393224455760384,-1.47248,-0.152188,0.891897,0.596468,0.0186989,-0.802392,0.00663502,-0.414274,-0.308958,-0.36471,-0.00139456,0.0126866,0.0427576,-0.0957082,0.101752,-0.105787
1413393224505760512,-1.49277,-0.167277,0.868373,0.596755,0.0136723,-0.802288,0.00556645,-0.397321,-0.301403,-0.413806,-0.00137624,0.0127435,0.0428784,-0.0945096,0.100056,-0.105528
1413393224555760384,-1.51232,-0.182162,0.843473,0.596541,0.00621767,-0.802539,0.00555774,-0.389023,-0.299751,-0.44713,-0.00134505,0.0128224,0.0430375,-0.0934881,0.0987903,-0.105417
1413393224605760512,-1.53142,-0.196965,0.819022,0.597476,-0.00140315,-0.801875,0.00420119,-0.378489,-0.290996,-0.464624,-0.00132371,0.0128678,0.0431057,-0.0921428,0.0972679,-0.105721
1413393224655760384,-1.55035,-0.211247,0.79631,0.597431,-0.00996677,-0.801855,0.00245004,-0.3677,-0.272158,-0.423745,-0.00130037,0.0129026,0.0431822,-0.0904315,0.09595,-0.105816
1413393224705760512,-1.56788,-0.224832,0.772619,0.595678,-0.0182853,-0.803015,0.000121367,-0.3421,-0.272295,-0.422307,-0.0012876,0.0129374,0.0433252,-0.0887484,0.0947417,-0.105205
1413393224755760384,-1.58492,-0.237681,0.751527,0.59393,-0.0269236,-0.804064,-0.00197558,-0.340765,-0.250395,-0.408162,-0.00126254,0.0129723,0.0434017,-0.0871055,0.093907,-0.104568
1413393224805760512,-1.60119,-0.249699,0.732109,0.59236,-0.0350277,-0.804887,-0.00625626,-0.306551,-0.219969,-0.391074,-0.00121493,0.0130156,0.0435304,-0.0855493,0.0932279,-0.103348
1413393224855760384,-1.61624,-0.260618,0.712967,0.590603,-0.0433848,-0.805739,-0.00954335,-0.296567,-0.222158,-0.341199,-0.00119967,0.0130496,0.0435846,-0.0834748,0.0927763,-0.102214
1413393224905760512,-1.63132,-0.271098,0.702088,0.589849,-0.0492421,-0.805904,-0.0131308,-0.299818,-0.20242,-0.281975,-0.00113595,0.0130487,0.0436712,-0.0813528,0.0921324,-0.100362
1413393224955760384,-1.64526,-0.280692,0.690243,0.588298,-0.0551879,-0.806599,-0.0160385,-0.270282,-0.173091,-0.218007,-0.00108711,0.0130498,0.0437993,-0.0795612,0.091816,-0.0987514
1413393225005760512,-1.65866,-0.289434,0.677051,0.586908,-0.0585753,-0.807285,-0.0199969,-0.269676,-0.181539,-0.143318,-0.00108702,0.0130427,0.0438403,-0.0780303,0.0917553,-0.0974726
1413393225055760384,-1.67221,-0.297847,0.671365,0.585463,-0.0601255,-0.808114,-0.0238768,-0.270318,-0.163771,-0.125706,-0.00104573,0.0130283,0.0439442,-0.0766527,0.0914246,-0.0960605
1413393225105760512,-1.68616,-0.305335,0.667623,0.584562,-0.0623203,-0.808499,-0.0270694,-0.264353,-0.134766,-0.0542557,-0.00103117,0.0129903,0.0440142,-0.075457,0.0912342,-0.095215
1413393225155760384,-1.69919,-0.31243,0.665197,0.584462,-0.0635611,-0.808385,-0.0296444,-0.257183,-0.147366,-0.0705614,-0.000994123,0.0129803,0.0440838,-0.0745742,0.0910079,-0.0945091
1413393225205760512,-1.71168,-0.319332,0.662669,0.583866,-0.0652843,-0.808676,-0.0296851,-0.250967,-0.13042,-0.0580846,-0.000967545,0.0129419,0.0441492,-0.0741516,0.0909613,-0.0943118
1413393225255760384,-1.72369,-0.325554,0.659549,0.583147,-0.0659207,-0.80907,-0.0316225,-0.234512,-0.116541,-0.0484772,-0.000927385,0.0129377,0.0442355,-0.0742962,0.0908806,-0.0942493
1413393225305760512,-1.73536,-0.331362,0.66022,0.582243,-0.0678301,-0.809525,-0.0325984,-0.232495,-0.11865,-0.0731662,-0.000929679,0.0129261,0.0442605,-0.0734311,0.0917758,-0.0946088
1413393225355760384,-1.74688,-0.336369,0.658208,0.582261,-0.0705215,-0.809179,-0.0350412,-0.218543,-0.089264,-0.0514382,-0.00089075,0.012945,0.0443615,-0.0743231,0.091544,-0.0948544
1413393225405760512,-1.75802,-0.340597,0.655441,0.581517,-0.0765901,-0.809121,-0.0359894,-0.226086,-0.0728524,-0.0296866,-0.000850935,0.0128687,0.0445004,-0.0745781,0.0915505,-0.0955706
1413393225455760384,-1.7699,-0.343906,0.654636,0.580522,-0.0835179,-0.809066,-0.0378423,-0.241207,-0.0629679,-0.0148816,-0.000830016,0.0128205,0.044547,-0.0748008,0.0917047,-0.0965039
1413393225505760512,-1.78168,-0.346263,0.658965,0.580485,-0.092659,-0.807986,-0.0401224,-0.230855,-0.0262597,-0.00186872,-0.00080337,0.0127627,0.0446526,-0.0758771,0.0921605,-0.0976474
1413393225555760384,-1.79328,-0.34722,0.662543,0.578748,-0.102467,-0.807854,-0.0438711,-0.224668,-0.00521462,0.00950069,-0.00080836,0.012736,0.0447169,-0.076647,0.0930157,-0.0989265
1413393225605760512,-1.80504,-0.346573,0.66355,0.577822,-0.113639,-0.806744,-0.0487001,-0.245841,0.0243583,0.0417899,-0.000806966,0.012661,0.0447296,-0.0771294,0.0938495,-0.0999899
1413393225655760384,-1.81694,-0.344449,0.668972,0.57747,-0.124485,-0.804958,-0.0554577,-0.236095,0.0626426,0.0524264,-0.000811871,0.0126058,0.044773,-0.0778683,0.0948454,-0.100888
1413393225705760512,-1.82836,-0.340805,0.672143,0.577127,-0.136938,-0.802633,-0.0628769,-0.23037,0.0901344,0.0763936,-0.000838512,0.0125408,0.0447732,-0.078506,0.0953824,-0.101346
1413393225755760384,-1.83974,-0.335922,0.676238,0.576595,-0.146971,-0.800343,-0.0734129,-0.233947,0.101841,0.0818778,-0.000860045,0.0124463,0.044832,-0.079182,0.0959925,-0.101837
1413393225805760512,-1.85073,-0.329768,0.680738,0.576132,-0.156105,-0.797754,-0.0853982,-0.212828,0.138335,0.107166,-0.000861155,0.0123683,0.0448482,-0.0796908,0.0960736,-0.102039
1413393225855760384,-1.86073,-0.322836,0.684958,0.572478,-0.16575,-0.796691,-0.100397,-0.196798,0.14541,0.0475693,-0.000883647,0.0123388,0.044855,-0.0807098,0.0978817,-0.102963
1413393225905760512,-1.87052,-0.315509,0.682098,0.571703,-0.171461,-0.79463,-0.110996,-0.194657,0.146237,-0.0461361,-0.000901833,0.0123268,0.0449159,-0.0817016,0.100558,-0.104173
1413393225955760384,-1.88044,-0.308021,0.677186,0.567909,-0.179875,-0.79317,-0.126519,-0.204871,0.153286,-0.152846,-0.000933643,0.0123199,0.0449289,-0.0827757,0.102407,-0.105377
1413393226005760512,-1.89061,-0.300505,0.667813,0.566885,-0.186714,-0.790044,-0.140037,-0.205173,0.147778,-0.227253,-0.00098463,0.0122991,0.0449584,-0.0831477,0.103706,-0.105268
1413393226055760384,-1.90105,-0.2934,0.655693,0.566259,-0.197568,-0.785925,-0.150466,-0.212697,0.137603,-0.244835,-0.000979414,0.0123418,0.0450587,-0.083906,0.10601,-0.105265
1413393226105760512,-1.91154,-0.287442,0.649352,0.565543,-0.208971,-0.782119,-0.157426,-0.218252,0.112056,-0.240126,-0.000912806,0.0124195,0.0451444,-0.0843494,0.109863,-0.104886
1413393226155760384,-1.9228,-0.28182,0.634876,0.565385,-0.220142,-0.777953,-0.163301,-0.226785,0.108637,-0.203467,-0.000981581,0.0123809,0.045188,-0.0851594,0.111048,-0.105496
1413393226205760512,-1.93423,-0.277038,0.629946,0.56458,-0.231034,-0.774292,-0.168359,-0.22748,0.0846164,-0.139292,-0.00100473,0.0124283,0.0451836,-0.0861683,0.113126,-0.10601
1413393226255760384,-1.94643,-0.273365,0.646304,0.563357,-0.241458,-0.771486,-0.170695,-0.248998,0.0850202,-0.0685225,-0.00110489,0.0126149,0.0452868,-0.0888804,0.116854,-0.107265
1413393226305760512,-1.95854,-0.269045,0.648759,0.562215,-0.249286,-0.769112,-0.173889,-0.235125,0.084637,-0.052426,-0.00108877,0.0126038,0.0453108,-0.0884312,0.117948,-0.106433
1413393226355760384,-1.97079,-0.265888,0.675399,0.559978,-0.257948,-0.767947,-0.173624,-0.24821,0.0770999,-0.0126228,-0.00108523,0.0126782,0.0453379,-0.0888237,0.121661,-0.106891
1413393226405760512,-1.98299,-0.263187,0.710267,0.556459,-0.26458,-0.768093,-0.17431,-0.24406,0.0787582,-0.0220431,-0.00114104,0.0128376,0.0453811,-0.0899452,0.126772,-0.108715
1413393226455760384,-1.99508,-0.258936,0.704917,0.552195,-0.270465,-0.769173,-0.174075,-0.249381,0.0808465,-0.0499078,-0.00109863,0.0128604,0.0455415,-0.0892238,0.128183,-0.107556
1413393226505760512,-2.0077,-0.255386,0.719696,0.548453,-0.27522,-0.770236,-0.173756,-0.263333,0.0865674,-0.101407,-0.00102897,0.0128438,0.0456587,-0.0881741,0.128629,-0.106625
1413393226555760384,-2.02107,-0.251205,0.719843,0.546051,-0.279401,-0.770609,-0.172991,-0.268504,0.0947427,-0.140431,-0.0010454,0.0128181,0.045708,-0.0879006,0.128844,-0.106775
1413393226605760512,-2.03434,-0.245481,0.698389,0.543395,-0.283007,-0.771197,-0.17287,-0.269525,0.113495,-0.169901,-0.000997844,0.0127956,0.0457025,-0.0871507,0.128231,-0.105952
1413393226655760384,-2.05021,-0.240535,0.691999,0.541205,-0.288332,-0.769936,-0.176525,-0.2827,0.13107,-0.153071,-0.000639443,0.0131598,0.045791,-0.0894275,0.127053,-0.104306
1413393226705760512,-2.06349,-0.232017,0.672834,0.542005,-0.28435,-0.76988,-0.180725,-0.301263,0.148231,-0.147274,-0.000752736,0.0135973,0.0461057,-0.0933817,0.130789,-0.107574
1413393226755760384,-2.08152,-0.226183,0.681169,0.542122,-0.286307,-0.76689,-0.189771,-0.302704,0.173049,-0.124589,-0.000335569,0.0136103,0.0459672,-0.0922719,0.128026,-0.105214
1413393226805760512,-2.09714,-0.217509,0.669722,0.542367,-0.283312,-0.766502,-0.195056,-0.329782,0.162717,-0.106441,-0.000419439,0.0137026,0.0460774,-0.0927617,0.127333,-0.106722
1413393226855760384,-2.1136,-0.208871,0.661167,0.542882,-0.279716,-0.766669,-0.198137,-0.338165,0.166013,-0.124601,-0.000467423,0.0137573,0.0461764,-0.0929699,0.127696,-0.107659
1413393226905760512,-2.1302,-0.199746,0.644609,0.542595,-0.275188,-0.767764,-0.201001,-0.348723,0.163734,-0.106052,-0.000248597,0.0137648,0.046576,-0.0906284,0.127232,-0.10454
1413393226955760384,-2.14796,-0.191802,0.639581,0.542547,-0.273242,-0.76814,-0.202342,-0.371636,0.150668,-0.0858213,-0.000334509,0.0138012,0.0466082,-0.0912426,0.126665,-0.106298
1413393227005760512,-2.16658,-0.18426,0.634224,0.542598,-0.271287,-0.768553,-0.203267,-0.381931,0.145315,-0.0815283,-0.000307312,0.0138869,0.0467099,-0.0918283,0.126524,-0.107524
1413393227055760384,-2.18594,-0.177145,0.628779,0.543612,-0.270401,-0.76829,-0.202732,-0.399267,0.139593,-0.0715776,-0.000326085,0.0140002,0.0468647,-0.092641,0.126314,-0.108349
1413393227105760512,-2.20628,-0.170147,0.615151,0.54563,-0.269008,-0.767774,-0.201114,-0.409963,0.125072,-0.0728169,-4.15725e-05,0.0141643,0.0472271,-0.0921087,0.127001,-0.106651
1413393227155760384,-2.22312,-0.163815,0.592001,0.549991,-0.258837,-0.77073,-0.191021,-0.422313,0.107614,-0.0571653,-0.00119551,0.014246,0.0475724,-0.0907606,0.128796,-0.101734
1413393227205760512,-2.24788,-0.157186,0.565296,0.552928,-0.254612,-0.771474,-0.185128,-0.42883,0.0985953,-0.0345476,-0.00171173,0.0143642,0.0477522,-0.0898072,0.128086,-0.0978727
1413393227255760384,-2.26929,-0.152513,0.566778,0.555333,-0.256751,-0.769922,-0.181396,-0.429823,0.0975532,-0.0111765,-0.00176244,0.014433,0.047822,-0.0908264,0.126512,-0.0986522
1413393227305760512,-2.2907,-0.147902,0.565637,0.555498,-0.258124,-0.769764,-0.179607,-0.429207,0.0944384,-0.0227428,-0.00184121,0.0144666,0.0478971,-0.0917675,0.125038,-0.0996466
1413393227355760384,-2.31225,-0.14301,0.558692,0.556564,-0.259241,-0.768919,-0.178311,-0.427647,0.0917978,-0.0129921,-0.00160447,0.0146494,0.0482062,-0.0925194,0.124444,-0.0990334
1413393227405760512,-2.33345,-0.138604,0.56445,0.556185,-0.26022,-0.769206,-0.176825,-0.423703,0.100016,-0.00743001,-0.00182134,0.0147212,0.0481579,-0.0946024,0.123113,-0.0998661
1413393227455760384,-2.35476,-0.133576,0.565005,0.556279,-0.261904,-0.768856,-0.175559,-0.423458,0.10617,-0.00720067,-0.00187527,0.0147298,0.0481715,-0.0955561,0.12196,-0.10097
1413393227505760512,-2.37597,-0.128202,0.564777,0.556373,-0.262907,-0.768513,-0.175262,-0.421613,0.110996,-0.0103877,-0.00189392,0.0147713,0.0482348,-0.0962832,0.121077,-0.101953
1413393227555760384,-2.39695,-0.122096,0.564263,0.557388,-0.265028,-0.766998,-0.175482,-0.415577,0.128107,-0.00523959,-0.0019457,0.0146001,0.0482476,-0.0953589,0.12084,-0.104062
1413393227605760512,-2.41758,-0.11545,0.565461,0.558002,-0.268407,-0.765239,-0.176071,-0.408273,0.137454,-0.0022624,-0.00196001,0.0145907,0.0483032,-0.0955964,0.120442,-0.105325
1413393227655760384,-2.43776,-0.108155,0.564461,0.557605,-0.272001,-0.763773,-0.178167,-0.397778,0.154504,0.00578611,-0.00197054,0.0146404,0.0483534,-0.0963655,0.119986,-0.106215
1413393227705760512,-2.45732,-0.100081,0.564264,0.556377,-0.277146,-0.762162,-0.180951,-0.384015,0.171713,0.00199224,-0.00199503,0.0146092,0.0483941,-0.0964988,0.119754,-0.107297
1413393227755760384,-2.47623,-0.0913666,0.564055,0.55544,-0.283475,-0.759785,-0.183998,-0.37163,0.183748,-0.0101879,-0.00202303,0.0145582,0.0484896,-0.0956781,0.119791,-0.108876
1413393227805760512,-2.4944,-0.0819975,0.564844,0.553542,-0.28918,-0.757725,-0.189257,-0.359862,0.190173,-0.0268094,-0.00201094,0.0146286,0.048495,-0.0968241,0.119155,-0.109463
1413393227855760384,-2.51194,-0.0720807,0.564443,0.55276,-0.297387,-0.754207,-0.192847,-0.345582,0.209176,-0.0269228,-0.00199014,0.0145138,0.0485947,-0.095697,0.119481,-0.110866
1413393227905760512,-2.52906,-0.0615381,0.563476,0.551118,-0.305576,-0.750859,-0.197745,-0.34126,0.215627,-0.013937,-0.00197979,0.0145439,0.0486379,-0.0957402,0.119545,-0.11167
1413393227955760384,-2.54549,-0.0505046,0.562361,0.550259,-0.313996,-0.746477,-0.203456,-0.319333,0.226553,-0.0160453,-0.00197084,0.0146284,0.0486991,-0.0965117,0.119545,-0.112057
1413393228005760512,-2.56084,-0.038713,0.560945,0.548297,-0.323782,-0.742085,-0.209395,-0.293673,0.247382,-0.031484,-0.00197409,0.0146311,0.0487413,-0.0969301,0.119715,-0.112649
1413393228055760384,-2.57536,-0.0262805,0.559452,0.545774,-0.333219,-0.73749,-0.217266,-0.290392,0.251534,-0.038583,-0.00197829,0.0146795,0.0487701,-0.0978535,0.119853,-0.112911
1413393228105760512,-2.58934,-0.0134192,0.557706,0.543208,-0.343028,-0.732847,-0.224037,-0.275249,0.26436,-0.0140828,-0.00195119,0.0147298,0.0488047,-0.0985593,0.11988,-0.113132
1413393228155760384,-2.60253,0.000117137,0.556224,0.539187,-0.352463,-0.728838,-0.232041,-0.254783,0.274148,-0.035888,-0.00192033,0.0148359,0.0488994,-0.0988597,0.119684,-0.113423
1413393228205760512,-2.61516,0.0140765,0.55446,0.535095,-0.361995,-0.725072,-0.238545,-0.253419,0.279031,-0.0235747,-0.00174611,0.0149718,0.0488755,-0.0993673,0.119261,-0.112985
1413393228255760384,-2.6274,0.0284547,0.553125,0.530939,-0.369162,-0.722015,-0.246006,-0.242833,0.286975,-0.0147832,-0.00163666,0.0151027,0.0490031,-0.100002,0.119327,-0.1129
1413393228305760512,-2.63943,0.0431169,0.552345,0.527289,-0.375765,-0.718928,-0.252806,-0.238419,0.292907,-0.00849451,-0.00160009,0.0151458,0.049064,-0.0997326,0.119377,-0.113287
1413393228355760384,-2.6513,0.0581201,0.55217,0.523991,-0.381433,-0.716022,-0.259334,-0.239397,0.300905,0.00345257,-0.00155723,0.0151243,0.0491306,-0.0989716,0.119191,-0.113814
1413393228405760512,-2.66287,0.0735952,0.552126,0.520549,-0.387374,-0.712834,-0.266155,-0.224573,0.311036,0.0107265,-0.00143518,0.015187,0.0492239,-0.0987283,0.119229,-0.113938
1413393228455760384,-2.67407,0.089325,0.552967,0.517841,-0.394375,-0.708807,-0.271851,-0.221633,0.316797,0.0198806,-0.0013429,0.0152202,0.0492832,-0.0981895,0.119194,-0.114087
1413393228505760512,-2.68527,0.10512,0.554901,0.516602,-0.400134,-0.70394,-0.27836,-0.231038,0.312006,0.0202422,-0.00123223,0.015285,0.0493515,-0.0977995,0.119286,-0.114078
1413393228555760384,-2.6963,0.120898,0.555667,0.514857,-0.406716,-0.69927,-0.283773,-0.211761,0.318266,0.0147373,-0.00115255,0.015339,0.0493644,-0.0973478,0.120034,-0.114574
1413393228605760512,-2.70711,0.136641,0.557028,0.511578,-0.413625,-0.695655,-0.28856,-0.214581,0.316294,0.0182222,-0.00111096,0.0153962,0.0494274,-0.0970596,0.120518,-0.115106
1413393228655760384,-2.71812,0.152168,0.558886,0.509433,-0.419749,-0.692282,-0.291607,-0.22216,0.311399,0.0238166,-0.00111539,0.0155102,0.0494356,-0.0974095,0.121264,-0.115802
1413393228705760512,-2.72892,0.16781,0.560203,0.506393,-0.423915,-0.690469,-0.295153,-0.21016,0.317502,0.0179862,-0.00108541,0.0154711,0.0494963,-0.0955722,0.120905,-0.116537
1413393228755760384,-2.73987,0.183523,0.560861,0.503995,-0.428491,-0.688587,-0.29704,-0.221046,0.315074,0.0246841,-0.00109335,0.0154411,0.049574,-0.094185,0.120592,-0.117366
1413393228805760512,-2.75117,0.199577,0.562343,0.501271,-0.433071,-0.687967,-0.296443,-0.230764,0.329281,0.00831632,-0.00114229,0.0153498,0.049652,-0.0920775,0.118873,-0.117722
1413393228855760384,-2.76196,0.216853,0.564513,-0.498496,0.43765,0.68778,0.294827,-0.221603,0.34065,-0.00354753,-0.000750712,0.0155029,0.0496674,-0.0904116,0.120421,-0.113889
1413393228905760512,-2.77304,0.234394,0.561202,-0.494802,0.441164,0.689158,0.292587,-0.221342,0.354237,-0.00173025,-0.00066131,0.0155036,0.0497529,-0.0887411,0.118989,-0.112274
1413393228955760384,-2.78454,0.252169,0.563826,-0.493408,0.44301,0.68922,0.292003,-0.226071,0.36687,-0.0144671,-0.000804972,0.015443,0.0498033,-0.0884793,0.117366,-0.114335
1413393229005760512,-2.79595,0.271236,0.561948,-0.491441,0.442193,0.690034,0.294627,-0.217402,0.395486,-0.00758105,-0.000854515,0.0154246,0.0498941,-0.0883295,0.115164,-0.114639
1413393229055760384,-2.80755,0.291531,0.559045,-0.488976,0.438941,0.691785,0.299443,-0.234063,0.416241,-0.0302015,-0.000980244,0.0153725,0.0499707,-0.0875687,0.112664,-0.115518
1413393229105760512,-2.81945,0.31264,0.550153,-0.488408,0.436039,0.691898,0.30431,-0.238843,0.423923,-0.0538393,-0.000984466,0.0153977,0.0500142,-0.0875526,0.113084,-0.116348
1413393229155760384,-2.8316,0.33389,0.545279,-0.487312,0.432953,0.692633,0.30877,-0.242162,0.424975,-0.0453563,-0.000953773,0.0154084,0.0500833,-0.0867543,0.112574,-0.11599
1413393229205760512,-2.84447,0.354995,0.541216,-0.486569,0.429716,0.693505,0.312484,-0.267621,0.425444,-0.0755954,-0.00101721,0.0154239,0.0501757,-0.0865372,0.113203,-0.117493
1413393229255760384,-2.85824,0.376309,0.537208,-0.486245,0.42691,0.69422,0.315233,-0.283093,0.423205,-0.0921827,-0.00100568,0.0154225,0.0502398,-0.0855281,0.113691,-0.117559
1413393229305760512,-2.87263,0.397453,0.532909,-0.486747,0.424686,0.694149,0.317611,-0.290839,0.420722,-0.105442,-0.000982696,0.0154759,0.0502879,-0.084824,0.114453,-0.116993
1413393229355760384,-2.88813,0.418241,0.528213,-0.488113,0.422961,0.693696,0.318803,-0.325574,0.417682,-0.120019,-0.00101859,0.0154715,0.0503657,-0.0838961,0.11409,-0.116951
1413393229405760512,-2.90462,0.438998,0.520409,-0.49035,0.422298,0.692714,0.318385,-0.342221,0.411954,-0.13579,-0.00103083,0.0153819,0.0504535,-0.0817144,0.113445,-0.117118
1413393229455760384,-2.92208,0.45936,0.51326,-0.494296,0.423358,0.690378,0.315939,-0.348604,0.403783,-0.133451,-0.00102688,0.0153755,0.0505086,-0.0807945,0.113395,-0.116908
1413393229505760512,-2.93994,0.479378,0.507636,-0.498363,0.424911,0.688337,0.311893,-0.36605,0.394241,-0.135202,-0.000999485,0.0153968,0.0505575,-0.0797581,0.113729,-0.116284
1413393229555760384,-2.95823,0.499,0.502228,0.500653,-0.427604,-0.686913,-0.307656,-0.366559,0.391722,-0.120447,-0.000971206,0.0153983,0.0506233,-0.0790449,0.113915,-0.116161
1413393229605760512,-2.97635,0.518499,0.496258,0.502465,-0.430355,-0.686124,-0.302585,-0.350561,0.394087,-0.108456,-0.000948659,0.0153981,0.0506904,-0.0779819,0.113964,-0.115892
1413393229655760384,-2.99404,0.538019,0.492115,0.502448,-0.433091,-0.686621,-0.297542,-0.355251,0.386699,-0.103109,-0.000920354,0.0154054,0.0507378,-0.0763137,0.114097,-0.114738
1413393229705760512,-3.01122,0.557671,0.488012,0.501048,-0.434826,-0.687952,-0.29428,-0.337843,0.398035,-0.0874276,-0.000916309,0.0153691,0.0508117,-0.0740041,0.113473,-0.113734
1413393229755760384,-3.02799,0.577699,0.484551,-0.49934,0.43615,0.689565,0.291434,-0.334188,0.402308,-0.065929,-0.000928781,0.0152886,0.050873,-0.0714632,0.112711,-0.112924
1413393229805760512,-3.04447,0.598121,0.485038,-0.496408,0.437915,0.6918,0.288483,-0.328622,0.419568,-0.0471926,-0.000944177,0.0152582,0.0509276,-0.069495,0.112556,-0.112625
1413393229855760384,-3.058,0.619298,0.484359,-0.493273,0.438133,0.695173,0.285405,-0.321332,0.437337,-0.024093,-0.00103575,0.015284,0.0510079,-0.0683492,0.113457,-0.112789
1413393229905760512,-3.07314,0.641718,0.481281,-0.490524,0.43879,0.697644,0.283093,-0.319725,0.450924,-0.00539722,-0.00107972,0.0152859,0.0510663,-0.0663818,0.113784,-0.110743
1413393229955760384,-3.08872,0.665279,0.478806,-0.488787,0.438222,0.699384,0.282684,-0.324423,0.481584,0.00844643,-0.0010734,0.0153075,0.0511194,-0.0652613,0.115303,-0.109851
1413393230005760512,-3.10453,0.69009,0.478986,-0.486977,0.4361,0.701062,0.284928,-0.319067,0.508412,0.0570085,-0.00105588,0.0153422,0.0511876,-0.0641475,0.116402,-0.109018
1413393230055760384,-3.12078,0.716271,0.480462,-0.486572,0.43133,0.702089,0.290299,-0.338975,0.527752,0.0584453,-0.00105546,0.0152998,0.051237,-0.061875,0.115748,-0.107285
1413393230105760512,-3.13769,0.742974,0.483856,-0.486464,0.426828,0.702828,0.295302,-0.343193,0.541933,0.0472175,-0.00109285,0.0152882,0.0513024,-0.0616519,0.116406,-0.109065
1413393230155760384,-3.15521,0.770378,0.486717,-0.486904,0.423476,0.702989,0.298996,-0.359595,0.550149,0.04274,-0.00106522,0.0152775,0.051362,-0.0606769,0.117408,-0.108389
1413393230205760512,-3.17358,0.797916,0.490247,-0.486774,0.420321,0.703731,0.301901,-0.382768,0.547812,0.0218715,-0.0010508,0.015283,0.051403,-0.060244,0.118216,-0.107846
1413393230255760384,-3.19312,0.825389,0.492798,-0.488384,0.418006,0.703157,0.303847,-0.399148,0.553105,0.00104595,-0.00109072,0.0152461,0.0514454,-0.0598891,0.117987,-0.108838
1413393230305760512,-3.21356,0.852729,0.495856,-0.49077,0.416356,0.702173,0.304542,-0.41677,0.550118,-0.00658668,-0.00110608,0.0152164,0.0515077,-0.059513,0.118396,-0.110056
1413393230355760384,-3.23465,0.879908,0.4958,-0.492452,0.417368,0.701416,0.302179,-0.426449,0.539983,-0.0433532,-0.00113251,0.0152225,0.0515585,-0.0592194,0.11885,-0.110446
1413393230405760512,-3.25632,0.906995,0.495009,-0.494983,0.418313,0.699958,0.30011,-0.438228,0.541218,-0.048499,-0.00116661,0.0152102,0.0516196,-0.0590556,0.11956,-0.111049
1413393230455760384,-3.27837,0.934314,0.491941,-0.49614,0.420543,0.698634,0.298163,-0.443271,0.55146,-0.0443186,-0.00117702,0.0152053,0.051685,-0.0588944,0.120209,-0.111165
1413393230505760512,-3.30048,0.9619,0.488019,-0.497154,0.424719,0.696199,0.29624,-0.443993,0.550214,-0.0229229,-0.0012033,0.0152014,0.0517883,-0.0584198,0.120403,-0.110724
1413393230555760384,-3.32208,0.989685,0.492536,-0.497103,0.430332,0.693164,0.295343,-0.431639,0.554014,-0.0428957,-0.00121743,0.0152132,0.0518493,-0.0573409,0.120732,-0.108396
1413393230605760512,-3.34207,1.01718,0.512243,-0.496512,0.436636,0.68964,0.295334,-0.420342,0.570114,-0.0310909,-0.00122918,0.0152603,0.0518921,-0.0562672,0.121789,-0.104886
1413393230655760384,-3.36145,1.04575,0.528264,-0.495313,0.444447,0.685303,0.295791,-0.41594,0.579129,-0.00840862,-0.00124153,0.0152916,0.051934,-0.0555989,0.123747,-0.102436
1413393230705760512,-3.36978,1.07415,0.520295,-0.494951,0.446178,0.685257,0.293892,-0.411828,0.605529,0.0425596,-0.00188538,0.0154182,0.0521965,-0.0490282,0.12497,-0.0841841
1413393230755760384,-3.38767,1.10483,0.48867,-0.493331,0.45242,0.68171,0.295317,-0.393432,0.614635,0.0539402,-0.00213148,0.0154312,0.0523356,-0.0455386,0.125004,-0.0743447
1413393230805760512,-3.40721,1.13542,0.490961,-0.490729,0.460796,0.676179,0.29939,-0.385762,0.628527,0.0688945,-0.00213159,0.0154177,0.0523507,-0.0457151,0.125308,-0.0747954
1413393230855760384,-3.42609,1.16723,0.493092,-0.486602,0.469129,0.670763,0.305309,-0.359415,0.653888,0.0806041,-0.00214558,0.0154085,0.052432,-0.045848,0.12537,-0.0749907
1413393230905760512,-3.44372,1.2,0.497205,-0.481729,0.476949,0.665393,0.312586,-0.34997,0.667631,0.110801,-0.00216361,0.0153821,0.0524867,-0.0459871,0.125541,-0.074911
1413393230955760384,-3.46065,1.23349,0.502319,-0.475411,0.483096,0.661191,0.321605,-0.335737,0.677798,0.12556,-0.00220435,0.0153848,0.0525362,-0.0462758,0.125944,-0.0748312
1413393231005760512,-3.47714,1.26773,0.50592,-0.468491,0.487873,0.657734,0.331485,-0.324168,0.68735,0.138644,-0.00222687,0.0153837,0.0525447,-0.0468591,0.126628,-0.0749516
1413393231055760384,-3.49322,1.30207,0.531508,-0.461355,0.491311,0.65536,0.340981,-0.331096,0.702573,0.127798,-0.0021047,0.0155205,0.0526119,-0.0465318,0.12894,-0.0712862
1413393231105760512,-3.51017,1.33705,0.541727,-0.455878,0.493784,0.652869,0.349449,-0.353068,0.699956,0.126048,-0.00211539,0.0155233,0.0526845,-0.046206,0.129014,-0.070222
1413393231155760384,-3.52792,1.37223,0.549718,-0.451257,0.495999,0.650656,0.356369,-0.365679,0.703266,0.139022,-0.00212434,0.0155325,0.0527103,-0.0464918,0.129819,-0.0694674
1413393231205760512,-3.54702,1.40739,0.554179,-0.447873,0.499145,0.648299,0.360517,-0.384067,0.709638,0.137609,-0.00220304,0.0155308,0.0527276,-0.0474587,0.129772,-0.0704773
1413393231255760384,-3.56732,1.44246,0.564506,-0.444831,0.501147,0.646534,0.364652,-0.42017,0.703936,0.130445,-0.00232152,0.0155171,0.0527285,-0.0489087,0.129187,-0.0716775
1413393231305760512,-3.58893,1.477,0.579718,-0.444229,0.503963,0.643816,0.366309,-0.431847,0.695847,0.0832164,-0.00240715,0.0155449,0.0527291,-0.0501636,0.127568,-0.0715039
1413393231355760384,-3.61149,1.51192,0.589374,-0.444625,0.507714,0.640377,0.366678,-0.446331,0.695669,0.0325743,-0.00236413,0.0155521,0.0527074,-0.0508015,0.12638,-0.0721319
1413393231405760512,-3.63594,1.5477,0.59127,-0.446605,0.511607,0.636202,0.366128,-0.465624,0.700459,-0.0058046,-0.00227763,0.0155498,0.0526863,-0.0515908,0.124892,-0.0729168
1413393231455760384,-3.65877,1.58271,0.588491,-0.451389,0.514095,0.631344,0.365184,-0.461309,0.703362,-0.0388956,-0.00231412,0.0155464,0.0526802,-0.0520207,0.125379,-0.0725869
1413393231505760512,-3.68193,1.6177,0.583638,-0.458203,0.515501,0.62532,0.36508,-0.466725,0.691357,-0.0834907,-0.00232322,0.015541,0.0526792,-0.0525279,0.125926,-0.0717349
1413393231555760384,-3.70478,1.65213,0.583389,-0.466673,0.514826,0.618824,0.366371,-0.4656,0.681695,-0.132043,-0.00232029,0.0155986,0.0527523,-0.0523314,0.127269,-0.0695155
1413393231605760512,-3.72672,1.68555,0.599146,-0.474357,0.5142,0.612642,0.367768,-0.433428,0.663036,-0.162875,-0.00202032,0.0157497,0.0528722,-0.0511938,0.130626,-0.0641101
1413393231655760384,-3.74781,1.71805,0.599483,-0.479288,0.514432,0.60778,0.369117,-0.421384,0.634778,-0.178938,-0.00180927,0.0159567,0.0529721,-0.0518423,0.132755,-0.060341
1413393231705760512,-3.76765,1.74922,0.598261,-0.480531,0.515263,0.605144,0.370669,-0.387838,0.610261,-0.179356,-0.00162398,0.0162457,0.0530609,-0.0532038,0.134247,-0.0565228
1413393231755760384,-3.78605,1.77908,0.591714,-0.478879,0.518445,0.603201,0.371535,-0.349732,0.586905,-0.166708,-0.0015575,0.0162799,0.0531619,-0.0533195,0.134448,-0.0542986
1413393231805760512,-3.80357,1.80758,0.583752,-0.476184,0.522903,0.601671,0.371233,-0.338304,0.550113,-0.158962,-0.00155763,0.0163303,0.0532216,-0.0551215,0.132628,-0.0533759
1413393231855760384,-3.81997,1.83449,0.578228,-0.473778,0.529207,0.599338,0.369146,-0.299272,0.525504,-0.146715,-0.00158524,0.0164319,0.053271,-0.0578507,0.129655,-0.0530074
1413393231905760512,-3.83496,1.85989,0.585123,-0.469273,0.53751,0.596941,0.366781,-0.259115,0.511616,-0.120776,-0.00154755,0.016704,0.0532169,-0.0640365,0.127647,-0.0571206
1413393231955760384,-3.84756,1.88508,0.580798,-0.465598,0.545626,0.593481,0.365091,-0.23304,0.508922,-0.104213,-0.0015224,0.0170069,0.0532157,-0.0690554,0.128035,-0.0594737
1413393232005760512,-3.8584,1.91025,0.572405,-0.461519,0.553582,0.589448,0.364827,-0.181905,0.495739,-0.0941159,-0.00162573,0.0170336,0.0534572,-0.0708959,0.123782,-0.0582019
1413393232055760384,-3.86623,1.93557,0.568322,-0.455489,0.560381,0.586265,0.367146,-0.138367,0.506861,-0.0545684,-0.00170875,0.0171469,0.0536857,-0.0701565,0.122368,-0.0536512
1413393232105760512,-3.87247,1.9611,0.561154,-0.44938,0.56665,0.582567,0.370919,-0.101661,0.494815,-0.0293291,-0.0017894,0.0171603,0.0539722,-0.0684405,0.118127,-0.0481766
1413393232155760384,-3.87652,1.98594,0.558179,-0.44327,0.572794,0.578187,0.375658,-0.0583479,0.491045,-0.0322459,-0.00182557,0.0172792,0.0539815,-0.0695914,0.118019,-0.0472069
1413393232205760512,-3.87865,2.01068,0.55743,-0.437017,0.577089,0.573462,0.38357,-0.0289558,0.49748,-0.0248917,-0.00182945,0.0172794,0.0539822,-0.0711866,0.118422,-0.0467062
1413393232255760384,-3.87951,2.03557,0.554962,-0.431279,0.58221,0.567983,0.390417,-0.0062861,0.496309,-0.058318,-0.00182921,0.0172795,0.0539826,-0.0728597,0.118756,-0.0463004
1413393232305760512,-3.87898,2.06043,0.551324,-0.425826,0.587476,0.562069,0.397017,0.0253733,0.496102,-0.0906938,-0.0018306,0.0172796,0.053983,-0.0745232,0.119146,-0.0458115
1413393232355760384,-3.87728,2.08541,0.546167,-0.421208,0.594242,0.554953,0.401855,0.0416354,0.499154,-0.126043,-0.00183088,0.0172797,0.0539833,-0.0761888,0.119527,-0.0453112
1413393232405760512,-3.87446,2.1104,0.539352,-0.415449,0.601127,0.549133,0.405588,0.0676898,0.501617,-0.141935,-0.00183124,0.0172797,0.0539835,-0.0778422,0.119917,-0.0447948
1413393232455760384,-3.87106,2.13567,0.529782,-0.409715,0.607683,0.543032,0.409844,0.0907447,0.500162,-0.1819,-0.00188522,0.0173036,0.0541193,-0.0779203,0.115981,-0.0426514
1413393232505760512,-3.86668,2.16132,0.514725,-0.404566,0.614366,0.536857,0.413117,0.105846,0.508586,-0.216678,-0.00193666,0.0172931,0.0542954,-0.0775434,0.111845,-0.0398738
1413393232555760384,-3.8614,2.18709,0.501964,-0.400454,0.619767,0.531327,0.416194,0.122115,0.51676,-0.252966,-0.00197233,0.0172878,0.0543402,-0.0775593,0.109133,-0.03914
1413393232605760512,-3.85542,2.21302,0.487803,-0.39695,0.623687,0.527147,0.419,0.133404,0.514595,-0.283823,-0.00200344,0.0172689,0.0544291,-0.077878,0.10686,-0.0383594
1413393232655760384,-3.84852,2.23885,0.472961,-0.39469,0.627435,0.52264,0.42118,0.163401,0.517803,-0.262531,-0.00205462,0.0172604,0.0544727,-0.0781057,0.104848,-0.0382583
1413393232705760512,-3.84031,2.26484,0.460408,-0.392919,0.629966,0.519048,0.423493,0.170244,0.523,-0.253648,-0.00205372,0.0172792,0.0546186,-0.0784015,0.10384,-0.0369092
1413393232755760384,-3.83099,2.29084,0.448555,-0.390274,0.631345,0.517323,0.425989,0.194015,0.520694,-0.229437,-0.00203789,0.017342,0.054676,-0.0794266,0.104217,-0.0362507
1413393232805760512,-3.82058,2.317,0.437134,-0.387985,0.632872,0.515862,0.427582,0.223897,0.533658,-0.223646,-0.00205536,0.017399,0.0546865,-0.080255,0.104416,-0.0356356
1413393232855760384,-3.80923,2.34404,0.426575,-0.387014,0.633635,0.514297,0.429215,0.230198,0.544956,-0.213107,-0.00207143,0.0174653,0.0546985,-0.0809915,0.104585,-0.0350166
1413393232905760512,-3.79706,2.37104,0.416038,-0.384662,0.634452,0.514613,0.429743,0.254169,0.542775,-0.200596,-0.00209984,0.0175278,0.0547023,-0.0816007,0.104517,-0.0342795
1413393232955760384,-3.78394,2.39838,0.407212,-0.380807,0.633416,0.516384,0.432572,0.275038,0.544792,-0.154024,-0.00207271,0.0175274,0.0547726,-0.0810688,0.102865,-0.0325102
1413393233005760512,-3.7704,2.42631,0.400302,-0.377392,0.632732,0.518352,0.434208,0.280308,0.559662,-0.120207,-0.00199442,0.0173921,0.0548951,-0.0788535,0.0984448,-0.0293136
1413393233055760384,-3.75651,2.45472,0.397168,-0.374019,0.631472,0.520831,0.435991,0.287728,0.570167,-0.079366,-0.00196172,0.0171182,0.0549625,-0.074245,0.0931806,-0.0262286
1413393233105760512,-3.74206,2.48331,0.395376,-0.371035,0.631137,0.522914,0.436532,0.303414,0.567638,-0.044962,-0.00202118,0.0169221,0.0548441,-0.0717139,0.0904998,-0.0254117
1413393233155760384,-3.72685,2.5122,0.393699,-0.369809,0.630289,0.524123,0.437347,0.299708,0.582357,-0.00166537,-0.00205503,0.0169408,0.0548503,-0.0710734,0.0922946,-0.0259931
1413393233205760512,-3.71144,2.5418,0.394663,-0.368818,0.628864,0.524997,0.439182,0.301641,0.601484,0.0510879,-0.00203592,0.0170378,0.0549243,-0.0717926,0.0943345,-0.0259721
1413393233255760384,-3.69556,2.57186,0.398382,-0.368566,0.627346,0.523315,0.443552,0.318404,0.598475,0.0924694,-0.00203343,0.0171187,0.0549844,-0.0722707,0.0966838,-0.0264144
1413393233305760512,-3.67961,2.60216,0.404122,-0.368151,0.626148,0.521062,0.448217,0.308783,0.611814,0.138396,-0.00199331,0.0171855,0.0550635,-0.0724219,0.0981022,-0.0258387
1413393233355760384,-3.66407,2.63272,0.412325,-0.368253,0.625047,0.517172,0.454136,0.31264,0.612655,0.193818,-0.00199386,0.0171868,0.0550894,-0.0720427,0.0973632,-0.0248921
1413393233405760512,-3.6488,2.66306,0.422531,-0.36851,0.625188,0.511514,0.460102,0.310361,0.597764,0.204922,-0.00196872,0.0172562,0.0551821,-0.0726283,0.0946549,-0.0234361
1413393233455760384,-3.63414,2.69298,0.434022,-0.36985,0.627675,0.503483,0.464479,0.299375,0.593796,0.254941,-0.00194713,0.0172285,0.0552194,-0.0718009,0.0909408,-0.0224105
1413393233505760512,-3.61958,2.72203,0.451161,-0.366816,0.629943,0.497986,0.46971,0.293659,0.564196,0.299574,-0.00195488,0.0172055,0.0552167,-0.0712373,0.0885636,-0.0224044
1413393233555760384,-3.60512,2.74988,0.466972,-0.364012,0.63456,0.491263,0.472747,0.29262,0.542899,0.30638,-0.00194091,0.0172153,0.0552933,-0.0706315,0.0873497,-0.0219715
1413393233605760512,-3.59077,2.77712,0.483608,-0.357148,0.639517,0.486398,0.476319,0.286201,0.544408,0.35451,-0.00193037,0.0171872,0.0553253,-0.0697276,0.0858259,-0.0216962
1413393233655760384,-3.57694,2.80358,0.499099,-0.349411,0.646262,0.48127,0.47816,0.2793,0.532632,0.388692,-0.00191169,0.0172068,0.0554213,-0.0682876,0.0836933,-0.0200145
1413393233705760512,-3.56287,2.82874,0.528378,-0.341252,0.653984,0.475562,0.479263,0.267905,0.51986,0.422335,-0.00191218,0.0172297,0.0554314,-0.0681879,0.0882233,-0.0217168
1413393233755760384,-3.54941,2.85463,0.553841,-0.333516,0.658537,0.469311,0.484606,0.256851,0.518825,0.483026,-0.00191918,0.0172539,0.0555152,-0.0675318,0.0899191,-0.0207418
1413393233805760512,-3.53666,2.87983,0.578016,-0.329463,0.662733,0.4615,0.489139,0.237669,0.496511,0.50374,-0.00193151,0.0172934,0.0555516,-0.0667854,0.0932274,-0.0205535
1413393233855760384,-3.52451,2.90446,0.602558,-0.327027,0.66355,0.453648,0.49695,0.212004,0.49745,0.491435,-0.0019429,0.0172955,0.0555686,-0.0662173,0.0991302,-0.0217963
1413393233905760512,-3.51361,2.92863,0.627113,-0.327432,0.666101,0.445268,0.500834,0.19876,0.482942,0.489063,-0.00197144,0.0172857,0.0555914,-0.0658551,0.10323,-0.0225122
1413393233955760384,-3.50348,2.95187,0.651908,-0.325795,0.668511,0.437101,0.505859,0.198154,0.455569,0.482015,-0.0020162,0.0172894,0.0556026,-0.0656365,0.105765,-0.0239094
1413393234005760512,-3.49377,2.97408,0.672774,-0.324566,0.673674,0.428931,0.506792,0.17383,0.442115,0.487437,-0.00204032,0.0172994,0.0556066,-0.0652957,0.109751,-0.0252788
1413393234055760384,-3.48451,2.99554,0.686182,-0.322948,0.679764,0.420634,0.506648,0.166205,0.416736,0.476171,-0.00205825,0.0173035,0.0556418,-0.0645891,0.11399,-0.0258637
1413393234105760512,-3.47536,3.0161,0.689957,-0.319293,0.686556,0.413145,0.505968,0.168515,0.388084,0.461055,-0.00208468,0.0173103,0.0556855,-0.0634211,0.118352,-0.0256347
1413393234155760384,-3.46684,3.03557,0.699742,-0.315054,0.693144,0.406522,0.505007,0.1612,0.372159,0.415146,-0.00210669,0.0173311,0.0557012,-0.0621744,0.119936,-0.0252328
1413393234205760512,-3.45858,3.05391,0.721961,-0.31341,0.698148,0.399404,0.504818,0.16702,0.354122,0.382973,-0.00212737,0.0173475,0.0557446,-0.0608106,0.11964,-0.0245929
1413393234255760384,-3.44984,3.07112,0.739262,-0.316299,0.700658,0.388766,0.507834,0.181239,0.33241,0.33962,-0.00215341,0.0173547,0.0557852,-0.0591033,0.120271,-0.0233013
1413393234305760512,-3.45444,3.05224,1.02117,-0.333907,0.697599,0.387264,0.501885,0.172275,0.311497,0.297567,-0.00340589,0.0171693,0.0558207,-0.0437753,0.20033,0.0147907
1413393234355760384,-3.44586,3.06642,1.03052,-0.340904,0.699232,0.373888,0.505042,0.18908,0.269269,0.27166,-0.00340461,0.0172004,0.0558517,-0.041126,0.198257,0.0194072
1413393234405760512,-3.43346,3.07853,1.04965,-0.347354,0.700518,0.361007,0.508226,0.215677,0.21512,0.21897,-0.00347509,0.0172049,0.055904,-0.0388601,0.207985,0.0234236
1413393234455760384,-3.42463,3.08781,1.07534,-0.350785,0.702615,0.348821,0.511474,0.227077,0.160041,0.187693,-0.00343134,0.0172382,0.0559542,-0.0372803,0.197388,0.024032
1413393234505760512,-3.41358,3.09426,1.09276,-0.350235,0.704611,0.339661,0.515256,0.252763,0.0814154,0.152472,-0.00341594,0.0172516,0.0560047,-0.0358809,0.193059,0.0250179
1413393234555760384,-3.40042,3.09668,1.10658,-0.34553,0.70665,0.332769,0.520116,0.2878,-0.00943956,0.199667,-0.00342116,0.0173245,0.0560655,-0.034035,0.189051,0.0277561
1413393234605760512,-3.3853,3.09388,1.11442,-0.333582,0.70735,0.330721,0.528208,0.318362,-0.074187,0.204118,-0.00343098,0.0172923,0.0560299,-0.0345395,0.193163,0.02213
1413393234655760384,-3.36832,3.08859,1.12753,-0.314309,0.707065,0.333089,0.538814,0.330986,-0.156,0.277001,-0.00342242,0.0172979,0.0561166,-0.032302,0.193099,0.0242436
1413393234705760512,-3.35231,3.07861,1.14533,-0.291739,0.707825,0.337277,0.547829,0.313577,-0.239988,0.426763,-0.00342976,0.0173229,0.0561699,-0.0307024,0.19295,0.0250319
1413393234755760384,-3.3375,3.06554,1.16763,-0.271646,0.710963,0.33941,0.552758,0.282952,-0.284138,0.451074,-0.00343623,0.0173578,0.0561979,-0.0285618,0.191252,0.0295986
1413393234805760512,-3.32395,3.05087,1.19062,-0.251605,0.715876,0.341227,0.55478,0.250696,-0.301373,0.448392,-0.0034338,0.0173669,0.0562261,-0.0273083,0.191569,0.0307907
1413393234855760384,-3.31245,3.03579,1.21192,-0.23681,0.723111,0.339185,0.553159,0.223935,-0.3089,0.377437,-0.00344914,0.0174193,0.0562706,-0.0258556,0.187422,0.0352608
1413393234905760512,-3.30257,3.02099,1.23106,-0.22839,0.731199,0.332742,0.549972,0.200362,-0.305803,0.289953,-0.00343269,0.0174803,0.0563251,-0.0241488,0.180677,0.0395996
1413393234955760384,-3.29395,3.00656,1.24725,-0.22267,0.738632,0.324322,0.547408,0.174784,-0.298037,0.185905,-0.00342545,0.0175436,0.0563673,-0.0226609,0.172624,0.0454339
1413393235005760512,-3.28588,2.99197,1.25447,-0.220853,0.746361,0.312624,0.544459,0.157529,-0.292505,0.0841061,-0.00342473,0.017563,0.0563908,-0.0220455,0.169862,0.0470867
1413393235055760384,-3.27876,2.97765,1.25678,-0.220153,0.753057,0.299746,0.542761,0.152981,-0.287866,-0.0166651,-0.00341943,0.0176336,0.0564274,-0.0220642,0.163606,0.0507619
1413393235105760512,-3.27157,2.96323,1.25343,-0.218494,0.759012,0.286833,0.542114,0.152671,-0.290224,-0.109443,-0.00340861,0.0176738,0.0564688,-0.0215887,0.160008,0.0526372
1413393235155760384,-3.26402,2.9486,1.24618,-0.214576,0.764659,0.275358,0.541694,0.160797,-0.290714,-0.184474,-0.00340412,0.0176924,0.056504,-0.0210554,0.159345,0.054254
1413393235205760512,-3.25598,2.93403,1.23634,-0.206316,0.76825,0.266761,0.544117,0.163812,-0.293926,-0.203964,-0.00338621,0.0177142,0.0565609,-0.0212567,0.158536,0.0545088
1413393235255760384,-3.24762,2.91915,1.2257,-0.194411,0.772149,0.261032,0.545759,0.16507,-0.296332,-0.221676,-0.00336759,0.0177533,0.0565992,-0.0208633,0.158772,0.0556642
1413393235305760512,-3.23943,2.9045,1.21514,-0.180646,0.775343,0.257091,0.547827,0.163932,-0.287343,-0.199977,-0.00334714,0.0177537,0.0566647,-0.0219707,0.159752,0.0541533
1413393235355760384,-3.23139,2.89063,1.20554,-0.168948,0.779096,0.253664,0.547833,0.157955,-0.267,-0.191663,-0.00332821,0.0177824,0.056702,-0.0219433,0.159852,0.0545409
1413393235405760512,-3.22379,2.87807,1.19641,-0.157995,0.78285,0.251768,0.546622,0.151477,-0.237696,-0.170728,-0.00331474,0.0178057,0.0567622,-0.0220786,0.159488,0.0531118
1413393235455760384,-3.21628,2.86716,1.1904,-0.14964,0.785984,0.249235,0.545637,0.15901,-0.202529,-0.152232,-0.0033032,0.0178197,0.0567953,-0.0222279,0.158014,0.0521109
1413393235505760512,-3.20862,2.85822,1.18519,-0.141521,0.789018,0.248348,0.543825,0.164762,-0.164267,-0.12015,-0.00326721,0.0178473,0.0568543,-0.0219785,0.156061,0.0521704
1413393235555760384,-3.20085,2.85163,1.18085,-0.13206,0.788264,0.248046,0.547424,0.170807,-0.114406,-0.0787516,-0.00324829,0.0178372,0.0568915,-0.0225705,0.154591,0.050419
1413393235605760512,-3.19352,2.84785,1.17488,-0.120452,0.785736,0.249787,0.552917,0.159924,-0.0664858,-0.0984503,-0.00320771,0.0178499,0.0569268,-0.0233876,0.153181,0.0495294
1413393235655760384,-3.18692,2.84701,1.16985,-0.112004,0.783755,0.248753,0.557947,0.150478,-0.00912233,-0.0795091,-0.00317345,0.0178651,0.0569413,-0.0239698,0.151599,0.0483626
1413393235705760512,-3.18105,2.84909,1.16425,-0.107054,0.781287,0.246905,0.563177,0.124776,0.0580859,-0.0831718,-0.00314425,0.0178693,0.0569761,-0.0249543,0.150572,0.0468505
1413393235755760384,-3.1758,2.85258,1.15972,-0.106576,0.780544,0.243274,0.565872,0.0997601,0.120339,-0.0743682,-0.0031583,0.0178805,0.0570199,-0.0263278,0.150954,0.0447591
1413393235805760512,-3.16788,2.85903,1.15319,-0.110762,0.780016,0.239479,0.567412,0.0681864,0.180371,-0.0683228,-0.00324465,0.0178819,0.0570812,-0.0277569,0.150911,0.0427343
1413393235855760384,-3.17938,2.87127,1.18816,-0.110771,0.783983,0.217858,0.570648,0.0565142,0.219163,-0.0719735,-0.00221306,0.017855,0.0569026,-0.0319197,0.144409,0.0333868
1413393235905760512,-3.17965,2.88859,1.17353,-0.126074,0.783631,0.212878,0.569834,0.0319454,0.24226,-0.0751483,-0.00266649,0.0179139,0.0570401,-0.0311531,0.142618,0.0395914
1413393235955760384,-3.16208,2.89347,1.11935,-0.143451,0.782679,0.211285,0.567622,0.0136494,0.258843,-0.0626162,-0.003398,0.0179089,0.0572299,-0.0315922,0.147022,0.045422
1413393236005760512,-3.17988,2.91746,1.13892,-0.143777,0.784982,0.194401,0.570386,0.00960828,0.245661,-0.0351799,-0.00283657,0.0179699,0.0571135,-0.0329484,0.135555,0.0475672
1413393236055760384,-3.16181,2.9226,1.09124,-0.158642,0.783207,0.196713,0.568088,0.00513919,0.235269,-0.0309317,-0.00385353,0.0179783,0.0573669,-0.0317286,0.144214,0.0554749
1413393236105760512,-3.16236,2.94154,1.07067,-0.163046,0.784189,0.190874,0.567478,0.0249112,0.226524,0.0119191,-0.00416522,0.0180024,0.057418,-0.0309841,0.146936,0.0609179
1413393236155760384,-3.16103,2.9666,1.07245,-0.163413,0.785875,0.182628,0.567753,0.0065708,0.169949,0.0217472,-0.00428759,0.017974,0.0574661,-0.0313476,0.154218,0.0618546
1413393236205760512,-3.17594,2.97348,1.1096,-0.145236,0.791462,0.162908,0.570925,0.000767174,0.133443,0.055147,-0.00325051,0.0180672,0.057293,-0.0350757,0.13179,0.0552719
1413393236255760384,-3.1723,2.97616,1.10914,-0.136631,0.793763,0.160962,0.570406,-0.0274455,0.11363,0.0922462,-0.00346538,0.0180492,0.0574068,-0.0365323,0.138066,0.0545101
1413393236305760512,-3.17334,2.98046,1.11452,-0.122958,0.79625,0.156702,0.571237,-0.0108172,0.0856347,0.0771179,-0.00345529,0.0180547,0.0574402,-0.0373983,0.139751,0.0553696
1413393236355760384,-3.17364,2.98494,1.11783,-0.111408,0.798397,0.150229,0.572348,-0.00911301,0.0875622,0.111449,-0.00346404,0.0180625,0.0574924,-0.0388933,0.14185,0.0555471
1413393236405760512,-3.17421,2.98968,1.12293,-0.103202,0.801118,0.142214,0.572132,-0.0087135,0.102851,0.110341,-0.00345778,0.0180761,0.0575479,-0.0404811,0.143239,0.0557397
1413393236455760384,-3.17471,2.99448,1.12842,-0.0963769,0.803281,0.132909,0.572526,-0.0114428,0.0972969,0.0976875,-0.0034522,0.0180884,0.0575904,-0.0410344,0.142512,0.056686
1413393236505760512,-3.17498,2.99943,1.13369,-0.090666,0.807251,0.12265,0.57016,-0.0034714,0.0965286,0.0978846,-0.00343691,0.0180982,0.0576221,-0.0421056,0.143568,0.0575675
1413393236555760384,-3.17496,3.00464,1.1383,-0.0843982,0.811863,0.112908,0.566575,0.00779656,0.105349,0.104777,-0.00345302,0.0181251,0.0576722,-0.0437454,0.144069,0.0579259
1413393236605760512,-3.17436,3.01014,1.14327,-0.0782853,0.817866,0.103136,0.560651,0.0223887,0.114445,0.106271,-0.00346742,0.0181306,0.0577081,-0.0449628,0.14413,0.0588589
1413393236655760384,-3.17281,3.01601,1.14743,-0.0731574,0.823009,0.093334,0.555512,0.0490846,0.122929,0.0552711,-0.00346234,0.0181495,0.05773,-0.0459473,0.143914,0.0602696
1413393236705760512,-3.17014,3.02236,1.14891,-0.0700738,0.825918,0.0843206,0.553028,0.0583105,0.13078,0.00054228,-0.00347906,0.0181524,0.0577632,-0.0470173,0.144664,0.0615615
1413393236755760384,-3.16685,3.02898,1.15095,-0.069428,0.827384,0.0739779,0.552397,0.086292,0.129903,-0.0457429,-0.00346247,0.0181759,0.0577894,-0.0471585,0.144987,0.0639305
1413393236805760512,-3.16266,3.03525,1.14808,-0.0703058,0.827362,0.0621122,0.55378,0.110836,0.127741,-0.0899541,-0.00340534,0.0181753,0.0577903,-0.0479056,0.144717,0.0651246
1413393236855760384,-3.16344,3.04467,1.16571,-0.064102,0.826747,0.0464683,0.556975,0.148772,0.118241,-0.0795586,-0.00287162,0.018217,0.0577167,-0.0491158,0.135367,0.0662021
1413393236905760512,-3.16005,3.05259,1.18832,-0.0612168,0.825133,0.0391698,0.560245,0.176277,0.098635,-0.00926828,-0.00276131,0.0182194,0.0577753,-0.0529883,0.130719,0.0596979
1413393236955760384,-3.15051,3.05614,1.18843,-0.0577388,0.822177,0.0360521,0.565148,0.208526,0.0726419,0.0340564,-0.00275747,0.0182445,0.0578104,-0.0544039,0.132372,0.0598841
1413393237005760512,-3.13953,3.05923,1.19308,-0.0529721,0.819244,0.0357349,0.569875,0.223894,0.0614601,0.126024,-0.00275912,0.0182864,0.0578614,-0.0554475,0.133218,0.0619767
1413393237055760384,-3.13012,3.061,1.22574,-0.0476853,0.817088,0.0360484,0.573406,0.220664,0.036837,0.196134,-0.00270418,0.0182966,0.0579095,-0.0564437,0.132021,0.0622842
1413393237105760512,-3.09838,3.05897,1.16531,-0.0520533,0.816477,0.0502479,0.572828,0.226404,0.0375096,0.267938,-0.00375792,0.0180941,0.0577546,-0.0358377,0.206678,0.123698
1413393237155760384,-3.07527,3.05399,1.27002,-0.0448728,0.813729,0.054811,0.576913,0.229169,0.04922,0.252269,-0.00378847,0.0180017,0.0577483,-0.0327839,0.223639,0.131173
1413393237205760512,-3.06411,3.05622,1.28104,-0.0373285,0.811473,0.0602412,0.580077,0.223111,0.0643466,0.207194,-0.00376012,0.018014,0.0577671,-0.0336154,0.222232,0.134039
1413393237255760384,-3.05293,3.05967,1.28744,-0.0321653,0.80983,0.0641243,0.582262,0.22979,0.0739929,0.136391,-0.00375423,0.0180443,0.0578221,-0.0344589,0.220791,0.136485
1413393237305760512,-3.04187,3.06409,1.29132,-0.02802,0.809772,0.0676416,0.582159,0.214277,0.10321,0.0794957,-0.00374216,0.0180603,0.0578682,-0.0348176,0.220626,0.138213
1413393237355760384,-3.03164,3.06999,1.29319,-0.0255246,0.80983,0.0708439,0.581811,0.196781,0.135271,0.0063934,-0.00371605,0.0180642,0.0578981,-0.0351255,0.220423,0.139998
1413393237405760512,-3.0222,3.07726,1.29173,-0.0248228,0.809017,0.0723747,0.582785,0.185238,0.155135,-0.0642118,-0.00371703,0.0180947,0.0579559,-0.0359384,0.220032,0.140789
1413393237455760384,-3.01347,3.08613,1.28758,-0.0275239,0.808646,0.0718251,0.583246,0.170615,0.195954,-0.0946702,-0.00369475,0.0180921,0.0580249,-0.0365379,0.219966,0.141036
1413393237505760512,-3.00518,3.09657,1.28271,-0.0341956,0.808392,0.0692239,0.583559,0.163645,0.222148,-0.110795,-0.00368491,0.0181056,0.0580508,-0.0367968,0.219601,0.142357
1413393237555760384,-2.99753,3.10805,1.27766,-0.0429996,0.809011,0.0650476,0.582598,0.147609,0.235557,-0.101106,-0.00367083,0.0181222,0.0580753,-0.0366291,0.219128,0.142448
1413393237605760512,-2.99027,3.12006,1.27344,-0.0521464,0.809046,0.0605844,0.582284,0.138411,0.239457,-0.0973645,-0.00365251,0.0181127,0.0581028,-0.0361895,0.218619,0.143963
1413393237655760384,-2.98355,3.13197,1.26889,-0.0610162,0.810668,0.0561815,0.579601,0.13153,0.231518,-0.0836199,-0.00363901,0.0181192,0.058112,-0.0360366,0.218045,0.145201
1413393237705760512,-2.9769,3.14338,1.26505,-0.0682472,0.811422,0.0529522,0.578043,0.129761,0.217103,-0.0909737,-0.00363807,0.0181264,0.0581424,-0.0356859,0.217725,0.146613
1413393237755760384,-2.97043,3.15383,1.26035,-0.0731468,0.812462,0.0514664,0.576114,0.126326,0.194692,-0.0773229,-0.0036409,0.0181222,0.058174,-0.0358215,0.216966,0.148726
1413393237805760512,-2.96383,3.16298,1.25654,-0.0761678,0.813383,0.0510559,0.574456,0.139689,0.170314,-0.0511546,-0.00365006,0.0181477,0.0582172,-0.0363425,0.216838,0.149876
1413393237855760384,-2.95673,3.17083,1.25363,-0.0760388,0.814838,0.0526555,0.572263,0.152818,0.147724,-0.0579141,-0.00364754,0.0181543,0.0582246,-0.036596,0.217099,0.152023
1413393237905760512,-2.94881,3.17753,1.25152,-0.0739761,0.816665,0.0554713,0.569656,0.156913,0.121451,-0.0334288,-0.00363632,0.0181605,0.0582708,-0.0363198,0.217778,0.153504
1413393237955760384,-2.94071,3.1831,1.24966,-0.0716628,0.817766,0.057718,0.568148,0.159038,0.0944059,-0.0446254,-0.0036274,0.0181331,0.0582712,-0.0350695,0.218753,0.154829
1413393238005760512,-2.93243,3.18752,1.24704,-0.0641953,0.820464,0.0634133,0.564532,0.166137,0.0802503,-0.0478351,-0.00361184,0.0181434,0.0583172,-0.0350826,0.219808,0.155898
1413393238055760384,-2.92335,3.19156,1.24486,-0.0572271,0.822397,0.0688891,0.56182,0.186199,0.084808,-0.0296484,-0.00362231,0.0180987,0.0583375,-0.0342838,0.220308,0.156661
1413393238105760512,-2.91376,3.19549,1.24201,-0.0519945,0.824426,0.0726146,0.55888,0.203229,0.0838809,-0.0250953,-0.00362123,0.0181279,0.058377,-0.0350694,0.220584,0.158376
1413393238155760384,-2.9033,3.19949,1.24031,-0.0469473,0.824779,0.0750869,0.558478,0.214288,0.0839731,0.00375409,-0.003634,0.0180945,0.0584082,-0.0344475,0.220928,0.15944
1413393238205760512,-2.89167,3.20352,1.23716,-0.0433044,0.825309,0.0770312,0.557724,0.235171,0.113091,0.0160496,-0.00366557,0.0180709,0.058423,-0.0343807,0.222848,0.161086
1413393238255760384,-2.86096,3.18576,1.29199,-0.0546804,0.825194,0.0917097,0.554666,0.225403,0.138733,0.0692415,-0.0048585,0.0177368,0.0585155,-0.0196196,0.310089,0.197817
1413393238305760512,-2.848,3.19324,1.30075,-0.0521342,0.825768,0.0910593,0.554163,0.258228,0.160073,0.131031,-0.00487171,0.0177718,0.05856,-0.01763,0.311883,0.200835
1413393238355760384,-2.83446,3.20265,1.30685,-0.0512883,0.826361,0.0898927,0.553549,0.287034,0.203636,0.162412,-0.00489044,0.0177641,0.0585803,-0.0154447,0.311583,0.202349
1413393238405760512,-2.81911,3.21353,1.3141,-0.0512069,0.826134,0.0880824,0.554186,0.327938,0.233384,0.228793,-0.00491946,0.0177636,0.0585795,-0.0123983,0.311106,0.204128
1413393238455760384,-2.80261,3.22581,1.32341,-0.054189,0.825298,0.0840453,0.555773,0.341605,0.257889,0.258495,-0.00492216,0.0177809,0.0586428,-0.0100746,0.311387,0.204218
1413393238505760512,-2.78527,3.23915,1.33462,-0.0604842,0.824909,0.0776475,0.55663,0.350561,0.275024,0.230047,-0.00493451,0.0177532,0.0586435,-0.00783967,0.311855,0.20512
1413393238555760384,-2.76752,3.25301,1.34477,-0.0685905,0.823308,0.0698921,0.559083,0.349595,0.281587,0.177452,-0.00495486,0.0177432,0.0586817,-0.00692392,0.312996,0.204391
1413393238605760512,-2.7493,3.26686,1.35181,-0.0775959,0.821811,0.0619927,0.561037,0.367676,0.274042,0.118977,-0.00496015,0.0177365,0.0587111,-0.00599169,0.314523,0.204423
1413393238655760384,-2.73041,3.28009,1.35615,-0.0856992,0.821035,0.0545403,0.561768,0.382109,0.255386,0.0733319,-0.0049697,0.0177631,0.0587525,-0.00568916,0.317036,0.203876
1413393238705760512,-2.71063,3.29234,1.35722,-0.0919112,0.820345,0.0489689,0.562307,0.39028,0.233229,0.0061641,-0.00497854,0.0177658,0.0587688,-0.00553212,0.318536,0.203442
1413393238755760384,-2.69072,3.30298,1.35655,-0.0965628,0.819752,0.0446045,0.562754,0.402301,0.198097,-0.0338865,-0.00498882,0.0177594,0.058809,-0.00533226,0.320002,0.203171
1413393238805760512,-2.67007,3.31176,1.35353,-0.0978835,0.819,0.042785,0.563762,0.415488,0.164757,-0.0469963,-0.0049943,0.0177805,0.0588344,-0.00609198,0.321855,0.202159
1413393238855760384,-2.64884,3.31868,1.35054,-0.095937,0.818732,0.0435547,0.564427,0.426859,0.11961,-0.0371944,-0.00499888,0.0177973,0.0588594,-0.00621555,0.323978,0.201958
1413393238905760512,-2.6272,3.32354,1.3482,-0.0912454,0.818516,0.0462819,0.565301,0.445724,0.0833454,-0.023806,-0.00501995,0.0178308,0.058911,-0.0062116,0.325893,0.201135
1413393238955760384,-2.60519,3.32667,1.34757,-0.0832969,0.818405,0.0520625,0.566184,0.445895,0.0491991,-0.00588998,-0.00503639,0.0178295,0.0589435,-0.00592867,0.32779,0.200725
1413393239005760512,-2.58278,3.32882,1.34746,-0.0745212,0.817829,0.0580006,0.567661,0.451499,0.0245081,0.0131543,-0.00507547,0.017812,0.0590013,-0.00499048,0.330081,0.201334
1413393239055760384,-2.55994,3.33056,1.34898,-0.0668081,0.817754,0.0637788,0.568109,0.454774,0.0405691,0.0102535,-0.00510105,0.0178117,0.0590401,-0.00510539,0.332783,0.201497
1413393239105760512,-2.53697,3.33221,1.34909,-0.0604015,0.817437,0.0679661,0.568797,0.45593,0.0248108,-0.00174268,-0.00510326,0.0178297,0.0590566,-0.00433313,0.334117,0.202119
1413393239155760384,-2.51406,3.33404,1.34939,-0.0557343,0.817116,0.0706848,0.569403,0.457595,0.0425757,0.0193342,-0.00510926,0.0178418,0.0590963,-0.00334691,0.33475,0.201861
1413393239205760512,-2.49112,3.33678,1.34995,-0.0518357,0.817322,0.073809,0.569079,0.459156,0.0696372,0.0010062,-0.00512619,0.0178317,0.0591114,-0.00274787,0.334373,0.202683
1413393239255760384,-2.46815,3.34012,1.3505,-0.0499943,0.816954,0.0743084,0.569707,0.457767,0.0658452,0.00646223,-0.00511089,0.0178452,0.0591313,-0.00174809,0.335503,0.202379
1413393239305760512,-2.44519,3.34427,1.35098,-0.047519,0.81715,0.075157,0.569525,0.459081,0.0972649,0.0146507,-0.00511177,0.0178548,0.0591511,-0.00084491,0.335875,0.202176
1413393239355760384,-2.42219,3.34971,1.35184,-0.04654,0.817756,0.0760129,0.568622,0.457637,0.121255,0.0252627,-0.00511114,0.0178857,0.059166,0.000258311,0.336816,0.201557
1413393239405760512,-2.39914,3.35604,1.35316,-0.0459331,0.818024,0.0757731,0.568318,0.461335,0.133907,0.0295352,-0.00510088,0.0178935,0.0592208,0.00132123,0.337138,0.201321
1413393239455760384,-2.37599,3.36363,1.355,-0.046426,0.818701,0.0751033,0.567392,0.458718,0.166765,0.0365134,-0.00509931,0.0178831,0.0592335,0.00256093,0.33813,0.200658
1413393239505760512,-2.35267,3.37231,1.35812,-0.0442985,0.818613,0.076825,0.567458,0.466149,0.183475,0.0683673,-0.00509542,0.017901,0.0592727,0.00388918,0.339331,0.200134
1413393239555760384,-2.32941,3.38233,1.36153,-0.0463444,0.819151,0.0750662,0.566753,0.464518,0.20755,0.0686874,-0.00508154,0.0178978,0.0592919,0.0048886,0.33992,0.199869
1413393239605760512,-2.30622,3.39355,1.36553,-0.0503809,0.819804,0.0729797,0.565736,0.465695,0.24238,0.0773225,-0.00508882,0.017899,0.0593308,0.00573318,0.340212,0.199263
1413393239655760384,-2.28277,3.40591,1.37072,-0.0574451,0.820174,0.0682337,0.565119,0.472813,0.247344,0.0969051,-0.00507838,0.017916,0.0593682,0.00612832,0.339662,0.199106
1413393239705760512,-2.259,3.41846,1.37533,-0.0678714,0.820783,0.0608014,0.563925,0.479597,0.245686,0.0949077,-0.00507175,0.0179195,0.0593948,0.00650888,0.339303,0.199269
1413393239755760384,-2.23474,3.43073,1.38002,-0.0763933,0.820942,0.0552487,0.563175,0.489274,0.244379,0.087561,-0.00506647,0.0179214,0.0594266,0.0072126,0.339768,0.199261
1413393239805760512,-2.20994,3.44213,1.38462,-0.0817202,0.821202,0.0515986,0.562393,0.504632,0.209563,0.0909639,-0.00505515,0.0179277,0.0594612,0.00800313,0.340077,0.199457
1413393239855760384,-2.18473,3.4522,1.38828,-0.0842317,0.822291,0.0495566,0.560612,0.510762,0.190502,0.0652706,-0.0050468,0.0179562,0.0594735,0.0077742,0.340188,0.199349
1413393239905760512,-2.15875,3.46116,1.39197,-0.0822127,0.822787,0.0511287,0.560044,0.526132,0.167635,0.0783885,-0.00505562,0.0179912,0.0595037,0.00780838,0.340714,0.199353
1413393239955760384,-2.13198,3.46894,1.39556,-0.0806913,0.822751,0.052159,0.560222,0.544178,0.145138,0.0863949,-0.00505464,0.0180012,0.0595213,0.00808265,0.34122,0.199141
1413393240005760512,-2.10435,3.4757,1.39979,-0.0767845,0.821695,0.0548683,0.562059,0.559326,0.128505,0.0816774,-0.00505632,0.0180264,0.0595472,0.00831317,0.342093,0.199192
1413393240055760384,-2.07612,3.48181,1.4044,-0.0719941,0.820626,0.058592,0.563877,0.565755,0.114214,0.0907281,-0.00506021,0.0180417,0.0595737,0.00853933,0.343137,0.199025
1413393240105760512,-2.04761,3.48731,1.40923,-0.0651504,0.818627,0.0635874,0.567065,0.572144,0.101113,0.100377,-0.00504175,0.0180495,0.0596149,0.00837249,0.344083,0.199328
1413393240155760384,-2.01899,3.49282,1.41349,-0.0593066,0.817029,0.0683257,0.569454,0.571302,0.115872,0.0670681,-0.00503967,0.018045,0.0596591,0.00854674,0.34495,0.199458
1413393240205760512,-1.99074,3.49882,1.41622,-0.0554663,0.815599,0.0718711,0.571451,0.554632,0.125709,0.0241237,-0.00503643,0.0180387,0.0596831,0.00813352,0.346063,0.199982
1413393240255760384,-1.96306,3.50532,1.41619,-0.0525421,0.815561,0.0745601,0.571437,0.546956,0.136342,-0.0281186,-0.00503382,0.0180505,0.0597107,0.00773603,0.346941,0.200707
1413393240305760512,-1.93597,3.51255,1.41294,-0.0536123,0.81559,0.0740965,0.571357,0.53873,0.157781,-0.0822369,-0.00502669,0.0180333,0.0597367,0.0074771,0.348487,0.201522
1413393240355760384,-1.90901,3.52062,1.40754,-0.0555299,0.815503,0.0731759,0.571417,0.534229,0.169604,-0.133937,-0.00501889,0.0180492,0.0597748,0.00725002,0.349415,0.202433
1413393240405760512,-1.88211,3.5294,1.39951,-0.0602347,0.815544,0.0698201,0.571301,0.542651,0.183157,-0.175533,-0.00500806,0.0180719,0.0598296,0.00719702,0.350097,0.203392
1413393240455760384,-1.85525,3.53852,1.38926,-0.0644901,0.815034,0.0670228,0.5719,0.536888,0.183393,-0.221153,-0.00500307,0.0180934,0.0598643,0.00724698,0.350791,0.204345
1413393240505760512,-1.82899,3.54765,1.37703,-0.0704917,0.815041,0.0626546,0.571676,0.519219,0.179284,-0.23689,-0.00499127,0.018093,0.0598861,0.00709276,0.351025,0.204815
1413393240555760384,-1.80328,3.55638,1.36614,-0.0749334,0.814583,0.0592218,0.57213,0.508359,0.169205,-0.201783,-0.00501196,0.0181129,0.059905,0.0066088,0.351592,0.20553
1413393240605760512,-1.77806,3.56437,1.35793,-0.0784624,0.814327,0.0561529,0.57233,0.492593,0.150191,-0.153955,-0.00500993,0.0181223,0.059937,0.00606569,0.352397,0.206126
1413393240655760384,-1.7526,3.57139,1.35174,-0.0794125,0.814342,0.0545867,0.572329,0.529532,0.135725,-0.0903893,-0.00501028,0.0181242,0.0599542,0.00536354,0.353166,0.206745
1413393240705760512,-1.72524,3.57762,1.34958,-0.0782753,0.814673,0.0539873,0.572072,0.566112,0.115868,0.057654,-0.00505035,0.0181305,0.0599674,0.00431965,0.353082,0.207286
1413393240755760384,-1.69693,3.583,1.35268,-0.0743162,0.813938,0.0550968,0.573538,0.562696,0.103342,0.122508,-0.00504508,0.0181424,0.0599771,0.00325821,0.352261,0.207562
1413393240805760512,-1.6689,3.58789,1.35877,-0.0702098,0.812567,0.0563045,0.575878,0.562762,0.0898815,0.152372,-0.00504118,0.0181519,0.0599959,0.0020657,0.35149,0.207227
1413393240855760384,-1.6413,3.59248,1.36545,-0.0649761,0.811046,0.0586268,0.578399,0.545843,0.0916263,0.125813,-0.00506036,0.0181748,0.0600156,0.000864702,0.350934,0.206929
1413393240905760512,-1.61443,3.597,1.37032,-0.0618774,0.808556,0.0592662,0.582148,0.525912,0.0795485,0.0680645,-0.00505537,0.0181958,0.0600547,-0.000229289,0.349544,0.206418
1413393240955760384,-1.58927,3.60121,1.37227,-0.0591916,0.805932,0.0589281,0.586087,0.487117,0.0799399,-0.00348852,-0.00505479,0.0182181,0.0600921,-0.00190688,0.350342,0.205237
1413393241005760512,-1.56552,3.6056,1.37099,-0.0572165,0.803268,0.0587359,0.589947,0.475414,0.0888128,-0.0601164,-0.00504525,0.0182289,0.0601434,-0.00351942,0.351359,0.201983
1413393241055760384,-1.54213,3.61007,1.36651,-0.0572336,0.801203,0.056925,0.592923,0.461878,0.0861326,-0.115872,-0.0050305,0.018242,0.0601872,-0.0044544,0.352286,0.19967
1413393241105760512,-1.51972,3.6147,1.35811,-0.0598669,0.800764,0.0534255,0.593582,0.439358,0.0963209,-0.186366,-0.00502683,0.018253,0.0602145,-0.00543198,0.353162,0.197794
1413393241155760384,-1.49855,3.61929,1.34783,-0.0643925,0.801066,0.0481691,0.59315,0.409597,0.0900635,-0.242998,-0.00500434,0.0182544,0.0602673,-0.0066298,0.355394,0.195025
1413393241205760512,-1.47863,3.62369,1.33409,-0.0689154,0.802062,0.043602,0.591648,0.393482,0.0852619,-0.266117,-0.00500307,0.0182851,0.0602932,-0.00728388,0.355201,0.193223
1413393241255760384,-1.45978,3.62748,1.31943,-0.0726418,0.803563,0.0392425,0.589466,0.372092,0.0676132,-0.270149,-0.00498823,0.0182897,0.0603419,-0.00810323,0.355186,0.190757
1413393241305760512,-1.44169,3.63062,1.30691,-0.0750745,0.806161,0.0359471,0.585813,0.359636,0.0450178,-0.251561,-0.00497465,0.0182992,0.060366,-0.00814588,0.353718,0.189398
1413393241355760384,-1.42421,3.63221,1.2925,-0.0740975,0.811418,0.0349786,0.578695,0.344787,0.0273748,-0.24494,-0.00496649,0.0183156,0.060407,-0.00876432,0.355214,0.187393
1413393241405760512,-1.40716,3.63306,1.27931,-0.0735634,0.815059,0.0339488,0.573686,0.344651,0.00178669,-0.232237,-0.00496128,0.0183348,0.0604278,-0.00943978,0.353416,0.185466
1413393241455760384,-1.38991,3.6327,1.26858,-0.0701748,0.817522,0.0347886,0.570546,0.349355,-0.0228402,-0.197233,-0.00494838,0.0183328,0.0604823,-0.0107981,0.353213,0.182471
1413393241505760512,-1.37237,3.6316,1.26013,-0.0653279,0.818467,0.037486,0.569595,0.351373,-0.0284538,-0.162028,-0.00494532,0.0183452,0.0605198,-0.0115137,0.353227,0.180006
1413393241555760384,-1.3545,3.62978,1.25256,-0.060305,0.817704,0.0401162,0.571064,0.362176,-0.0484544,-0.157938,-0.00493748,0.0183644,0.0605633,-0.012142,0.353151,0.178551
1413393241605760512,-1.33638,3.6276,1.24554,-0.0547272,0.815761,0.0433987,0.574157,0.365134,-0.0455757,-0.157423,-0.00493253,0.0183923,0.0605927,-0.0125813,0.352754,0.176568
1413393241655760384,-1.31816,3.62546,1.23857,-0.0508317,0.81427,0.0462559,0.576404,0.358604,-0.0357787,-0.14582,-0.00493243,0.0183609,0.060623,-0.0131725,0.355054,0.175089
1413393241705760512,-1.30028,3.6235,1.23094,-0.0466302,0.812566,0.0492342,0.578911,0.3558,-0.0361545,-0.149059,-0.00493043,0.0183892,0.0606538,-0.0138727,0.355995,0.173188
1413393241755760384,-1.28275,3.62198,1.22286,-0.0446034,0.812148,0.0504623,0.579552,0.352151,-0.0265261,-0.139697,-0.00493322,0.0183983,0.0606886,-0.0147212,0.35618,0.170927
1413393241805760512,-1.26537,3.62111,1.21504,-0.0425622,0.812695,0.0525109,0.578756,0.343496,-0.00539572,-0.141268,-0.00492575,0.018411,0.0607235,-0.0155742,0.357108,0.169132
1413393241855760384,-1.24814,3.62105,1.20829,-0.0414025,0.81314,0.0542809,0.578051,0.343972,0.00249329,-0.132174,-0.00493135,0.0184085,0.0607609,-0.0161537,0.35785,0.167949
1413393241905760512,-1.23114,3.6218,1.20284,-0.0410909,0.812147,0.054863,0.579413,0.336126,0.0201712,-0.0898181,-0.00493355,0.0184185,0.0607872,-0.0166602,0.358439,0.166889
1413393241955760384,-1.21466,3.62341,1.19811,-0.041108,0.809768,0.0566861,0.582556,0.322047,0.0467881,-0.0890115,-0.00492323,0.0184222,0.0608088,-0.0171124,0.359751,0.166343
1413393242005760512,-1.19868,3.62589,1.19327,-0.0419902,0.808039,0.0573719,0.584823,0.31558,0.0544771,-0.0890503,-0.0049411,0.0184313,0.0608286,-0.0173731,0.361481,0.165607
1413393242055760384,-1.18371,3.62949,1.18893,-0.0426163,0.805079,0.0586411,0.588722,0.296654,0.0847811,-0.065971,-0.00492792,0.0184388,0.0608703,-0.018177,0.359824,0.163312
1413393242105760512,-1.16969,3.63407,1.18486,-0.0432664,0.802463,0.0603351,0.592065,0.276879,0.0976785,-0.0570117,-0.00492483,0.0184573,0.0609121,-0.0193377,0.357383,0.161154
1413393242155760384,-1.1568,3.63927,1.18018,-0.0461604,0.799024,0.059548,0.59656,0.253045,0.102715,-0.0471496,-0.00493427,0.0184907,0.0609352,-0.0195754,0.353992,0.16153
1413393242205760512,-1.14549,3.64533,1.17637,-0.05005,0.795203,0.05844,0.601442,0.214517,0.127065,-0.0325826,-0.00493567,0.0185213,0.0609704,-0.0198744,0.348853,0.161609
1413393242255760384,-1.13583,3.65138,1.17227,-0.0522459,0.792667,0.0583869,0.604599,0.18333,0.118754,-0.0260964,-0.00494015,0.0185359,0.0610007,-0.0203235,0.345506,0.16083
1413393242305760512,-1.12805,3.65773,1.16934,-0.0546487,0.791703,0.0572297,0.60576,0.147028,0.116173,-0.0212475,-0.00494558,0.0185693,0.0610244,-0.0218574,0.339085,0.159566
1413393242355760384,-1.12211,3.66454,1.16709,-0.0582593,0.792957,0.0558628,0.603908,0.116052,0.13016,-0.0324877,-0.00495446,0.018604,0.0610605,-0.0243195,0.332616,0.158011
1413393242405760512,-1.11762,3.67086,1.1647,-0.0634569,0.796333,0.0531272,0.59917,0.0818378,0.122021,-0.0255954,-0.00493929,0.0186139,0.0611127,-0.027593,0.33157,0.154223
1413393242455760384,-1.11427,3.67685,1.16303,-0.0691584,0.801687,0.0497437,0.591643,0.0586152,0.114653,-0.021259,-0.00493013,0.0186203,0.0611435,-0.0289826,0.331415,0.152445
1413393242505760512,-1.11197,3.68127,1.15733,-0.075612,0.807953,0.0456225,0.582592,0.0407137,0.101572,-0.0293026,-0.00491674,0.0186046,0.0611847,-0.0305851,0.337814,0.148982
1413393242555760384,-1.1099,3.68505,1.1545,-0.0802115,0.813428,0.042897,0.574509,0.0430734,0.0759907,0.000910684,-0.00489859,0.0186032,0.0612157,-0.0320002,0.343349,0.146757
1413393242605760512,-1.10764,3.68796,1.15372,-0.083467,0.817688,0.0408399,0.568112,0.0490784,0.0463546,0.00898586,-0.00489386,0.0185948,0.0612368,-0.0326407,0.346367,0.145499
1413393242655760384,-1.10461,3.68962,1.15441,-0.0850416,0.820356,0.0401357,0.564068,0.066872,0.0286611,0.0308171,-0.00488714,0.0185989,0.0612661,-0.0333649,0.350013,0.143389
1413393242705760512,-1.10077,3.6901,1.15634,-0.0868448,0.821343,0.0386925,0.562456,0.0890791,-0.00732905,0.0329386,-0.00488112,0.0186189,0.0612814,-0.0336301,0.349665,0.142377
1413393242755760384,-1.09598,3.68918,1.15871,-0.0906123,0.821137,0.0371,0.562269,0.103426,-0.0272848,0.0624318,-0.00487511,0.0186284,0.0613251,-0.0339077,0.350107,0.140725
1413393242805760512,-1.09028,3.68694,1.16224,-0.0919877,0.820253,0.0384928,0.563242,0.126176,-0.062905,0.0657935,-0.00486584,0.0186319,0.0613563,-0.0342284,0.349182,0.138811
1413393242855760384,-1.08353,3.68318,1.16612,-0.0916344,0.819176,0.0430355,0.564537,0.144297,-0.091078,0.0864762,-0.00485745,0.0186292,0.0613917,-0.0345074,0.349833,0.136572
1413393242905760512,-1.0757,3.67818,1.17089,-0.0865185,0.817799,0.0532797,0.566464,0.158914,-0.103979,0.077388,-0.00485282,0.0186248,0.0614161,-0.0347347,0.350049,0.135734
1413393242955760384,-1.06753,3.67223,1.17501,-0.0828079,0.817805,0.063291,0.565979,0.168457,-0.13413,0.0953131,-0.00484034,0.0186252,0.0614395,-0.0356427,0.351526,0.133114
1413393243005760512,-1.05892,3.66598,1.17993,-0.0807045,0.8183,0.07405,0.56426,0.179026,-0.123948,0.0978217,-0.00483779,0.018639,0.0614753,-0.036147,0.351827,0.131466
1413393243055760384,-1.0496,3.65984,1.18482,-0.0808548,0.818267,0.085757,0.562626,0.191373,-0.120191,0.086486,-0.00483384,0.0186405,0.0615111,-0.0363861,0.352225,0.130187
1413393243105760512,-1.03964,3.65391,1.18817,-0.0828851,0.818463,0.0967525,0.560257,0.208919,-0.119489,0.100087,-0.00482612,0.0186442,0.0615396,-0.0365257,0.351962,0.129958
1413393243155760384,-1.02941,3.64881,1.19059,-0.0881841,0.817092,0.107893,0.559414,0.218974,-0.0878777,0.119938,-0.00483322,0.0186919,0.0615619,-0.0371117,0.349495,0.129021
1413393243205760512,-1.01823,3.64458,1.19649,-0.0949254,0.813176,0.118528,0.56186,0.231999,-0.0761754,0.144724,-0.00483995,0.0186921,0.0615864,-0.037214,0.349627,0.127983
1413393243255760384,-1.00641,3.64053,1.20387,-0.101261,0.807269,0.126959,0.567402,0.242192,-0.0857985,0.143124,-0.00482759,0.018679,0.0616267,-0.0377636,0.35234,0.126575
1413393243305760512,-0.994485,3.6369,1.20997,-0.107044,0.80119,0.134877,0.573101,0.233049,-0.056493,0.0936464,-0.00482927,0.018686,0.0616502,-0.038187,0.353999,0.125204
1413393243355760384,-0.982725,3.63376,1.21293,-0.113207,0.796495,0.140816,0.577018,0.233013,-0.0678981,0.041718,-0.00482904,0.0186783,0.0616747,-0.0385381,0.356116,0.123504
1413393243405760512,-0.971613,3.63058,1.21391,-0.117685,0.792068,0.145589,0.581019,0.215037,-0.0678215,-0.00593,-0.00482218,0.0186855,0.0617033,-0.0392186,0.356449,0.121515
1413393243455760384,-0.961514,3.62769,1.21275,-0.122043,0.789058,0.150112,0.583061,0.19365,-0.0542211,-0.0424362,-0.00481783,0.0186808,0.061736,-0.0396927,0.356814,0.119528
1413393243505760512,-0.952165,3.62474,1.20895,-0.125727,0.786613,0.153538,0.584688,0.175671,-0.057939,-0.105959,-0.00482139,0.018699,0.0617562,-0.0406596,0.356844,0.11868
1413393243555760384,-0.943701,3.62176,1.20215,-0.129036,0.785206,0.156282,0.58513,0.15354,-0.0613289,-0.146751,-0.00482576,0.0187068,0.0617719,-0.041468,0.357086,0.118208
1413393243605760512,-0.936456,3.6185,1.19449,-0.131029,0.784586,0.158857,0.584825,0.134502,-0.0630303,-0.152338,-0.00481155,0.018707,0.0618081,-0.0419633,0.356705,0.116843
1413393243655760384,-0.930388,3.61504,1.18664,-0.132217,0.784575,0.161166,0.58394,0.108325,-0.0637045,-0.159792,-0.00481306,0.018717,0.0618284,-0.0428388,0.356934,0.115736
1413393243705760512,-0.925772,3.61148,1.17895,-0.132284,0.785424,0.163715,0.582073,0.0845956,-0.0577875,-0.126371,-0.00480791,0.0187149,0.0618723,-0.0436512,0.357089,0.113886
1413393243755760384,-0.922338,3.60802,1.17252,-0.132457,0.78676,0.165319,0.579771,0.0597917,-0.0633118,-0.113831,-0.00478722,0.0187138,0.0619152,-0.0440476,0.356724,0.111963
1413393243805760512,-0.919876,3.60452,1.16761,-0.131671,0.788007,0.167008,0.577768,0.0347346,-0.0635405,-0.0833622,-0.00478431,0.0187262,0.0619522,-0.044574,0.356711,0.110383
1413393243855760384,-0.918703,3.60119,1.16416,-0.132855,0.788606,0.167241,0.576611,0.0162035,-0.055735,-0.072771,-0.0047737,0.0187333,0.0619932,-0.0451181,0.356196,0.109171
1413393243905760512,-0.918446,3.59767,1.1613,-0.132256,0.788816,0.168047,0.576228,0.00264193,-0.0590099,-0.0382296,-0.00475477,0.0187387,0.0620158,-0.0455,0.355441,0.107762
1413393243955760384,-0.918784,3.59428,1.1595,-0.132192,0.788748,0.16843,0.576223,-0.0147508,-0.0538634,-0.0272491,-0.00474243,0.018743,0.0620405,-0.0456893,0.355552,0.107204
1413393244005760512,-0.919972,3.59096,1.15835,-0.131855,0.789027,0.168764,0.575821,-0.0273539,-0.0474693,-0.0213576,-0.00472734,0.0187562,0.0620505,-0.0457848,0.354977,0.106105
1413393244055760384,-0.921774,3.58781,1.15826,-0.13049,0.788664,0.16922,0.576494,-0.0408146,-0.0420955,-0.000663005,-0.00469727,0.0187856,0.062073,-0.045917,0.355237,0.105133
1413393244105760512,-0.924366,3.58492,1.15867,-0.129357,0.788909,0.169646,0.57629,-0.0598258,-0.0351356,0.022069,-0.00467798,0.0187994,0.0621022,-0.0458911,0.355316,0.105068
1413393244155760384,-0.927954,3.58246,1.15963,-0.128742,0.788941,0.170795,0.576044,-0.0831087,-0.0268442,0.00432708,-0.00465741,0.0188025,0.0621169,-0.0459727,0.354858,0.104025
1413393244205760512,-0.932752,3.5805,1.16034,-0.130551,0.788433,0.172743,0.575751,-0.0997226,-0.00311135,0.00862651,-0.00462487,0.0188184,0.0621398,-0.0465442,0.354608,0.102103
1413393244255760384,-0.938354,3.57914,1.16149,-0.132314,0.788067,0.176999,0.574557,-0.115902,0.00717084,0.0143001,-0.00460571,0.0188357,0.0621538,-0.0469685,0.3503,0.101776
1413393244305760512,-0.944666,3.57844,1.16095,-0.134809,0.787526,0.1825,0.572995,-0.131988,0.022716,0.0283443,-0.00457668,0.0188394,0.0621666,-0.0472199,0.348888,0.101854
1413393244355760384,-0.951595,3.57881,1.15984,-0.13911,0.786641,0.18893,0.571095,-0.145055,0.047183,0.0161478,-0.00456693,0.0188523,0.0621876,-0.0472781,0.348009,0.101676
1413393244405760512,-0.958754,3.58022,1.15966,-0.143983,0.784615,0.1939,0.571009,-0.144845,0.039312,-0.0194804,-0.00456238,0.0188408,0.0622092,-0.0476791,0.34808,0.0999908
1413393244455760384,-0.966477,3.58157,1.15798,-0.149766,0.782333,0.197332,0.571477,-0.165704,0.0445994,-0.0585298,-0.00455149,0.018843,0.0622353,-0.0486158,0.350492,0.0987544
1413393244505760512,-0.975335,3.58369,1.15378,-0.155504,0.780826,0.20049,0.570905,-0.180052,0.0482216,-0.1179,-0.00454543,0.0188569,0.0622614,-0.0491011,0.350247,0.0971226
1413393244555760384,-0.984635,3.58568,1.14546,-0.160674,0.77925,0.202599,0.570883,-0.187391,0.0324529,-0.18055,-0.00454149,0.0188667,0.062295,-0.0497159,0.349019,0.0954305
1413393244605760512,-0.994291,3.58773,1.13416,-0.165034,0.778946,0.204893,0.569233,-0.192949,0.0423784,-0.208622,-0.00454082,0.0188868,0.0623227,-0.0500719,0.348378,0.0942834
1413393244655760384,-1.00444,3.58969,1.12257,-0.169026,0.778785,0.206821,0.567583,-0.189448,0.0417267,-0.176889,-0.00453647,0.0188737,0.0623595,-0.0507772,0.348566,0.0916332
1413393244705760512,-1.01473,3.5915,1.11544,-0.172152,0.777685,0.208676,0.567472,-0.227107,0.0150102,-0.11011,-0.00453187,0.0188968,0.0623893,-0.0510275,0.348868,0.0903087
1413393244755760384,-1.02716,3.59231,1.1093,-0.17689,0.778396,0.208327,0.565164,-0.245593,-0.000147398,-0.103413,-0.00453418,0.0189091,0.0624039,-0.0502191,0.347098,0.0899272
1413393244805760512,-1.03973,3.59221,1.10612,-0.182059,0.778409,0.207044,0.563974,-0.248055,-0.00831406,-0.0385822,-0.00453973,0.018926,0.0624431,-0.0493073,0.346445,0.0900883
1413393244855760384,-1.05271,3.59121,1.10568,-0.185407,0.779146,0.206495,0.562064,-0.261745,-0.0236984,0.0511778,-0.00453486,0.0189439,0.0624624,-0.0485842,0.344694,0.0896992
1413393244905760512,-1.06475,3.58987,1.11099,-0.187852,0.779223,0.205371,0.561556,-0.227444,-0.0325128,0.141581,-0.00453004,0.0189456,0.0625037,-0.0475092,0.344366,0.0895404
1413393244955760384,-1.07592,3.58767,1.12005,-0.188193,0.779015,0.205429,0.56171,-0.237772,-0.0535176,0.209819,-0.00453084,0.0189588,0.0625407,-0.0465215,0.34352,0.0888836
1413393245005760512,-1.08797,3.5844,1.12909,-0.185272,0.780139,0.207476,0.560367,-0.238944,-0.07375,0.195337,-0.00452323,0.0189672,0.0625686,-0.0456314,0.342799,0.0883409
1413393245055760384,-1.10017,3.58019,1.13629,-0.18266,0.78237,0.208461,0.557742,-0.243985,-0.0856239,0.162046,-0.00452334,0.0189659,0.062588,-0.044387,0.342187,0.0890557
1413393245105760512,-1.11237,3.5757,1.14266,-0.179398,0.784802,0.210352,0.554666,-0.243233,-0.0893611,0.1085,-0.00452555,0.0189573,0.0626069,-0.0432063,0.341865,0.0886823
1413393245155760384,-1.12413,3.57107,1.14693,-0.177144,0.78783,0.210977,0.550847,-0.231754,-0.0983976,0.0606546,-0.0045219,0.0189597,0.0626266,-0.0424764,0.34146,0.0880921
1413393245205760512,-1.13552,3.5662,1.14942,-0.174554,0.790789,0.211994,0.54703,-0.224799,-0.101614,0.0177173,-0.00450723,0.0189485,0.0626604,-0.0417138,0.339946,0.0876423
1413393245255760384,-1.1465,3.56105,1.14925,-0.17202,0.791933,0.213274,0.545679,-0.216088,-0.104565,-0.0376637,-0.00451149,0.0189359,0.0626788,-0.0413286,0.34,0.0877228
1413393245305760512,-1.15679,3.55613,1.14497,-0.169673,0.792643,0.214359,0.544957,-0.201937,-0.0922387,-0.095642,-0.00452108,0.0189582,0.0626981,-0.0409442,0.338264,0.0897637
1413393245355760384,-1.16659,3.55149,1.13685,-0.167283,0.792003,0.215754,0.546075,-0.192024,-0.0828406,-0.136587,-0.00451632,0.0189794,0.0627135,-0.0408128,0.33715,0.091441
1413393245405760512,-1.17607,3.54728,1.12901,-0.165555,0.791047,0.216477,0.547699,-0.17037,-0.0821076,-0.168515,-0.00451503,0.0189705,0.0627255,-0.040436,0.335667,0.0914224
1413393245455760384,-1.18453,3.54386,1.12212,-0.163372,0.789547,0.217597,0.550069,-0.172478,-0.0747792,-0.209495,-0.00453031,0.0190119,0.0627614,-0.0398721,0.332883,0.0929682
1413393245505760512,-1.19306,3.54022,1.11016,-0.161688,0.788039,0.218514,0.552362,-0.17059,-0.0614107,-0.234437,-0.0045199,0.0190476,0.0628143,-0.0385102,0.332588,0.0937867
1413393245555760384,-1.20095,3.53768,1.10302,-0.160038,0.786142,0.219008,0.555341,-0.164464,-0.0604044,-0.22883,-0.00453689,0.0190449,0.0627929,-0.0360765,0.333646,0.0971503
1413393245605760512,-1.18248,3.54468,1.19393,-0.156614,0.800847,0.218747,0.535039,-0.185118,-0.0537458,-0.217415,-0.00488815,0.0200349,0.0614419,0.149116,0.450625,0.601644
1413393245655760384,-1.1903,3.5424,1.18637,-0.155278,0.799877,0.218839,0.536838,-0.190492,-0.0411113,-0.208554,-0.00490905,0.0200636,0.0614019,0.155399,0.459593,0.617108
1413393245705760512,-1.20007,3.54058,1.17659,-0.152711,0.798802,0.21936,0.538959,-0.189691,-0.0306985,-0.186798,-0.00490995,0.0200845,0.0614675,0.152461,0.459178,0.613205
1413393245755760384,-1.20991,3.53923,1.16736,-0.150682,0.799351,0.218842,0.538926,-0.198887,-0.0199758,-0.174977,-0.00489657,0.0200821,0.0614795,0.15093,0.461193,0.611435
1413393245805760512,-1.22008,3.53853,1.15884,-0.149533,0.800282,0.21735,0.538468,-0.206164,-0.00647843,-0.15893,-0.00489043,0.0200894,0.0615027,0.149359,0.463387,0.6092
1413393245855760384,-1.23045,3.53848,1.15144,-0.150291,0.801158,0.214494,0.538099,-0.209629,0.0022825,-0.136744,-0.00489613,0.0201044,0.061527,0.149019,0.464051,0.607735
1413393245905760512,-1.24116,3.53886,1.14448,-0.151741,0.803126,0.21109,0.536101,-0.212519,0.00822672,-0.140191,-0.00488493,0.0200949,0.0615504,0.147513,0.465233,0.60578
1413393245955760384,-1.25203,3.53967,1.13814,-0.154996,0.805257,0.20667,0.53369,-0.216527,0.0198439,-0.13087,-0.00488127,0.0200818,0.061576,0.145109,0.465449,0.603639
1413393246005760512,-1.26284,3.54076,1.13183,-0.159527,0.808519,0.201332,0.529447,-0.213547,0.0247081,-0.124837,-0.0048923,0.0200825,0.0616085,0.141944,0.464062,0.601759
1413393246055760384,-1.27304,3.54178,1.12582,-0.164451,0.811696,0.195752,0.525155,-0.194083,0.017232,-0.119197,-0.00488395,0.0200753,0.0616077,0.140132,0.463524,0.600549
1413393246105760512,-1.2824,3.54247,1.11983,-0.168108,0.815107,0.190888,0.520483,-0.175932,0.00898927,-0.119795,-0.00488718,0.0200655,0.0616425,0.137486,0.463928,0.599454
1413393246155760384,-1.29068,3.54281,1.11411,-0.171975,0.816947,0.187677,0.517493,-0.150357,0.0100654,-0.100729,-0.00488772,0.0200833,0.0616682,0.13496,0.465446,0.597435
1413393246205760512,-1.2974,3.54296,1.10936,-0.174612,0.81635,0.188225,0.517354,-0.117332,-0.00318432,-0.0914351,-0.00487562,0.020098,0.0616865,0.133847,0.467016,0.596725
1413393246255760384,-1.30273,3.54263,1.10492,-0.175566,0.814149,0.192552,0.518904,-0.0955925,-0.0115612,-0.0893808,-0.00487534,0.0201106,0.0617215,0.132578,0.468463,0.594878
1413393246305760512,-1.30703,3.54203,1.10087,-0.174478,0.809986,0.201278,0.522463,-0.0732293,-0.00659218,-0.0726828,-0.00487262,0.0201353,0.0617457,0.130981,0.469711,0.593867
1413393246355760384,-1.31046,3.54134,1.09708,-0.173384,0.804883,0.211252,0.526759,-0.0624627,-0.0134821,-0.081528,-0.00486812,0.0201551,0.0617768,0.129817,0.47043,0.592807
1413393246405760512,-1.31335,3.54042,1.09343,-0.173618,0.79982,0.219722,0.530912,-0.0529924,-0.0222783,-0.065402,-0.00488188,0.0201744,0.0617902,0.128375,0.471536,0.592399
1413393246455760384,-1.31604,3.53948,1.09076,-0.175028,0.794738,0.226938,0.53503,-0.0553943,-0.0153248,-0.0538083,-0.00489356,0.0201914,0.061815,0.126649,0.472355,0.591465
1413393246505760512,-1.31893,3.5384,1.08797,-0.176802,0.790919,0.232751,0.537601,-0.0607684,-0.0263999,-0.055043,-0.00489759,0.0202168,0.0618444,0.125502,0.473688,0.590215
1413393246555760384,-1.32221,3.53718,1.0851,-0.178195,0.787978,0.237797,0.539249,-0.0686804,-0.0240064,-0.0628715,-0.00490573,0.0202273,0.0618623,0.124299,0.474917,0.589045
1413393246605760512,-1.32592,3.53583,1.08207,-0.179347,0.786383,0.242359,0.539165,-0.0822507,-0.027222,-0.0672389,-0.00489192,0.0202163,0.0618837,0.123923,0.477519,0.586604
1413393246655760384,-1.33027,3.53428,1.07867,-0.180137,0.786631,0.245663,0.53704,-0.0887674,-0.0350634,-0.063111,-0.00489296,0.0201971,0.0619061,0.123416,0.479091,0.584629
1413393246705760512,-1.33505,3.53278,1.07564,-0.180567,0.786509,0.248439,0.535796,-0.102238,-0.0264549,-0.0599459,-0.00488964,0.0201849,0.0619348,0.122689,0.481033,0.583119
1413393246755760384,-1.34028,3.53159,1.07291,-0.181497,0.786393,0.250023,0.534914,-0.110868,-0.0196065,-0.0424341,-0.00488691,0.0201797,0.0619593,0.121761,0.482763,0.581153
1413393246805760512,-1.34608,3.53058,1.06988,-0.181766,0.785725,0.251578,0.535075,-0.119721,-0.0189416,-0.0661851,-0.00489425,0.0201684,0.0619812,0.120337,0.483725,0.579879
1413393246855760384,-1.35254,3.52992,1.06583,-0.182218,0.785164,0.253044,0.535053,-0.134553,-0.00662033,-0.0915085,-0.00488843,0.0201695,0.0620057,0.118765,0.485509,0.578045
1413393246905760512,-1.35963,3.52981,1.06103,-0.182874,0.784029,0.254439,0.535833,-0.148692,0.00473694,-0.0984347,-0.00488747,0.0201681,0.0620303,0.117121,0.486831,0.576283
1413393246955760384,-1.36737,3.53029,1.05543,-0.184919,0.782364,0.255002,0.537295,-0.162822,0.0148566,-0.136519,-0.00489153,0.0201909,0.0620534,0.11464,0.487406,0.574977
1413393247005760512,-1.37588,3.53118,1.04857,-0.18582,0.781755,0.256373,0.537217,-0.176937,0.0201296,-0.145002,-0.00489343,0.0202055,0.0620763,0.112422,0.487977,0.574085
1413393247055760384,-1.3852,3.53238,1.04075,-0.186913,0.781432,0.257347,0.536843,-0.194429,0.0277058,-0.166844,-0.00488268,0.0201808,0.0621146,0.111781,0.489975,0.573097
1413393247105760512,-1.3952,3.53398,1.03207,-0.188145,0.780911,0.25844,0.536645,-0.204645,0.0388295,-0.174084,-0.00487602,0.0201889,0.0621342,0.110757,0.491812,0.57174
1413393247155760384,-1.40582,3.53608,1.02264,-0.189864,0.78139,0.259122,0.535011,-0.219728,0.0429742,-0.198751,-0.00491104,0.0202614,0.0621182,0.10526,0.489971,0.569968
1413393247205760512,-1.41693,3.53826,1.0116,-0.192487,0.783052,0.259239,0.531576,-0.229448,0.0487214,-0.231265,-0.00489064,0.0202039,0.0621642,0.105797,0.494006,0.568747
1413393247255760384,-1.4284,3.54058,0.999534,-0.194532,0.786416,0.259787,0.525565,-0.228452,0.0472495,-0.248303,-0.00490932,0.0202704,0.0621459,0.102073,0.493024,0.567469
1413393247305760512,-1.43991,3.54301,0.986564,-0.196504,0.79084,0.259994,0.518036,-0.230691,0.0507695,-0.267218,-0.0049119,0.0202768,0.0621777,0.0995566,0.493392,0.567115
1413393247355760384,-1.45106,3.54561,0.972975,-0.197477,0.795322,0.260884,0.510299,-0.212296,0.0589532,-0.260863,-0.00490775,0.0202793,0.0621901,0.0979971,0.495588,0.566011
1413393247405760512,-1.46141,3.54864,0.959827,-0.199763,0.798894,0.260909,0.503775,-0.199586,0.066413,-0.261685,-0.0049091,0.0202663,0.062215,0.0961654,0.496855,0.566179
1413393247455760384,-1.47046,3.55215,0.946938,-0.201514,0.801604,0.261439,0.49847,-0.170237,0.0820854,-0.258262,-0.00488835,0.0202163,0.0622695,0.0960391,0.501375,0.565663
1413393247505760512,-1.47801,3.55612,0.934815,-0.205031,0.803793,0.25988,0.494309,-0.135857,0.0777237,-0.250307,-0.00486186,0.0201883,0.0622977,0.0946674,0.503668,0.565192
1413393247555760384,-1.48375,3.56032,0.92327,-0.206808,0.80511,0.259935,0.491388,-0.0890578,0.0943117,-0.212168,-0.00486572,0.0202224,0.0623194,0.0907829,0.502592,0.564136
1413393247605760512,-1.48748,3.5649,0.91232,-0.210762,0.806602,0.258448,0.488034,-0.0573251,0.0977884,-0.230374,-0.00486591,0.0202046,0.0623576,0.0887786,0.503996,0.563655
1413393247655760384,-1.48916,3.56956,0.901596,-0.213979,0.806891,0.257771,0.486513,-0.0103858,0.0871775,-0.227137,-0.00485306,0.0201924,0.0623913,0.0863649,0.505174,0.56249
1413393247705760512,-1.48825,3.57426,0.890484,-0.215712,0.806232,0.258302,0.486558,0.040264,0.0945534,-0.231211,-0.00486188,0.0202255,0.0623956,0.082253,0.5045,0.561771
1413393247755760384,-1.48493,3.57923,0.8797,-0.219762,0.805316,0.257855,0.486499,0.0864875,0.103073,-0.206022,-0.00486241,0.0202366,0.062408,0.0783915,0.504404,0.561336
1413393247805760512,-1.47936,3.584,0.86856,-0.223021,0.805452,0.257922,0.484752,0.14753,0.097293,-0.199074,-0.00485077,0.0202478,0.0624347,0.0756153,0.504835,0.561189
1413393247855760384,-1.47145,3.58837,0.858586,-0.227581,0.803658,0.256478,0.486375,0.189679,0.0886376,-0.193627,-0.00484794,0.0202525,0.062458,0.0730856,0.505904,0.560397
1413393247905760512,-1.46019,3.59298,0.851506,-0.234394,0.798384,0.254131,0.49301,0.244109,0.0888125,-0.111477,-0.00483702,0.0202666,0.0624744,0.0709981,0.507028,0.559166
1413393247955760384,-1.44628,3.59684,0.847422,-0.236115,0.790271,0.255817,0.504262,0.297828,0.0668541,-0.0777203,-0.00484299,0.0202458,0.0624998,0.0694128,0.507935,0.558003
1413393248005760512,-1.4312,3.59966,0.842128,-0.237293,0.783024,0.25599,0.514814,0.299425,0.0398758,-0.106023,-0.00482886,0.020245,0.0625139,0.06721,0.508597,0.556894
1413393248055760384,-1.41649,3.60057,0.83641,-0.237098,0.776353,0.258007,0.523921,0.293809,0.00657597,-0.0954708,-0.00482534,0.0202455,0.0625346,0.0649022,0.508964,0.555638
1413393248105760512,-1.40183,3.59985,0.830762,-0.235017,0.772087,0.26067,0.529811,0.285568,-0.0408592,-0.125593,-0.0048173,0.0202597,0.0625558,0.0627354,0.509369,0.554447
1413393248155760384,-1.38795,3.59699,0.824988,-0.233554,0.769069,0.262803,0.533779,0.278946,-0.0586522,-0.103123,-0.00480141,0.0202768,0.0625881,0.0606431,0.509793,0.553274
1413393248205760512,-1.37365,3.59354,0.820559,-0.230577,0.767857,0.265618,0.535422,0.275179,-0.0870662,-0.0783609,-0.00480507,0.0202831,0.0626098,0.0590089,0.509829,0.552048
1413393248255760384,-1.36046,3.58821,0.817311,-0.227639,0.769569,0.26743,0.533316,0.270696,-0.120841,-0.0350482,-0.00480806,0.0203039,0.0626502,0.058846,0.509423,0.552126
1413393248305760512,-1.34702,3.58234,0.816275,-0.222432,0.772169,0.270643,0.530124,0.254238,-0.123088,-0.0238498,-0.00479845,0.0203054,0.0626628,0.0590913,0.509564,0.551626
1413393248355760384,-1.33446,3.57538,0.816156,-0.220807,0.772915,0.271259,0.5294,0.242374,-0.15344,0.00294008,-0.00479644,0.0203215,0.0626928,0.0592439,0.50957,0.55074
1413393248405760512,-1.32259,3.56744,0.81714,-0.218977,0.772512,0.270768,0.530998,0.230998,-0.174262,0.0372377,-0.00478798,0.0203335,0.0627218,0.0600937,0.509769,0.550144
1413393248455760384,-1.3115,3.55905,0.820047,-0.219432,0.770127,0.269213,0.53505,0.208486,-0.165136,0.0798969,-0.00477366,0.0203409,0.0627452,0.061616,0.509762,0.549438
1413393248505760512,-1.30146,3.54985,0.824294,-0.221378,0.767057,0.266137,0.540173,0.188724,-0.19604,0.0826329,-0.00477067,0.0203431,0.0627646,0.0636151,0.50958,0.548653
1413393248555760384,-1.29194,3.5401,0.829229,-0.222387,0.764564,0.262927,0.544844,0.194684,-0.199653,0.118712,-0.0047701,0.020344,0.0627852,0.066161,0.509291,0.548315
1413393248605760512,-1.28304,3.52998,0.836644,-0.223218,0.76229,0.260543,0.548822,0.154461,-0.216789,0.160025,-0.00475446,0.0203362,0.0628059,0.0686281,0.509041,0.54883
1413393248655760384,-1.27585,3.51847,0.844613,-0.223675,0.761803,0.258267,0.550385,0.128851,-0.250728,0.171953,-0.00474186,0.0203473,0.0628244,0.0713048,0.50945,0.548836
1413393248705760512,-1.27044,3.50521,0.852568,-0.221033,0.762926,0.257876,0.55008,0.100473,-0.280419,0.160165,-0.00472229,0.02035,0.0628431,0.0741916,0.50892,0.549085
1413393248755760384,-1.26646,3.49081,0.860972,-0.217638,0.765512,0.258233,0.547669,0.0602043,-0.300191,0.176439,-0.00470691,0.020372,0.0628466,0.0769789,0.508752,0.54906
1413393248805760512,-1.26387,3.47516,0.869902,-0.21359,0.76915,0.258737,0.543915,0.0443742,-0.318782,0.178138,-0.00467967,0.0203636,0.0629228,0.0799445,0.508916,0.549861
1413393248855760384,-1.26231,3.45889,0.878746,-0.207868,0.774472,0.260035,0.537928,0.0194148,-0.329829,0.159746,-0.00465001,0.020351,0.062899,0.0820474,0.509087,0.549432
1413393248905760512,-1.26174,3.44239,0.886012,-0.202592,0.7818,0.261052,0.528769,0.00627073,-0.32865,0.130374,-0.00464999,0.020351,0.062899,0.0840252,0.509119,0.549042
1413393248955760384,-1.26161,3.426,0.891292,-0.197185,0.788726,0.261704,0.520135,0.00129899,-0.32561,0.0820832,-0.00464998,0.020351,0.0628991,0.0858196,0.509054,0.548731
1413393249005760512,-1.26138,3.41046,0.894598,-0.193213,0.794185,0.261549,0.513353,0.00489978,-0.299091,0.0383457,-0.00464996,0.020351,0.0628992,0.0874299,0.508907,0.548513
1413393249055760384,-1.261,3.39581,0.895782,-0.190211,0.797736,0.260669,0.509401,0.0119456,-0.283104,0.0106806,-0.00464994,0.0203511,0.0628993,0.0888779,0.508703,0.548389
1413393249105760512,-1.26035,3.38211,0.895167,-0.188019,0.799763,0.259389,0.507687,0.0151982,-0.264423,-0.0298147,-0.00464992,0.0203511,0.0628994,0.090207,0.508492,0.548319
1413393249155760384,-1.25917,3.36953,0.892508,-0.186662,0.800484,0.257394,0.508066,0.0301576,-0.241771,-0.0700082,-0.00462716,0.0203401,0.0628969,0.0914128,0.508298,0.54818
1413393249205760512,-1.25745,3.35801,0.888633,-0.186119,0.799534,0.255396,0.510763,0.0413016,-0.221117,-0.0831727,-0.00459731,0.0203373,0.0628943,0.0925836,0.508101,0.547992
1413393249255760384,-1.25506,3.34747,0.884727,-0.184641,0.797996,0.254076,0.51435,0.0547959,-0.199567,-0.0779779,-0.00457979,0.0203382,0.0628928,0.0938043,0.507918,0.547845
1413393249305760512,-1.25221,3.33761,0.880395,-0.184615,0.796875,0.25196,0.517131,0.0682029,-0.184206,-0.0547331,-0.00467438,0.0204109,0.0626458,0.0930553,0.508996,0.541906
1413393249355760384,-1.24852,3.32895,0.877944,-0.182953,0.795719,0.251993,0.51948,0.0776658,-0.156597,-0.0345272,-0.00467439,0.0204115,0.0626459,0.0945897,0.508784,0.541967
1413393249405760512,-1.24441,3.32127,0.876244,-0.181152,0.794555,0.252647,0.521571,0.084936,-0.148852,-0.0331026,-0.00467303,0.0204096,0.0626471,0.0959017,0.508669,0.54129
1413393249455760384,-1.24016,3.31454,0.874629,-0.177538,0.793225,0.255066,0.523657,0.0837788,-0.123466,-0.0349016,-0.00467319,0.0204101,0.062647,0.0975562,0.508542,0.54147
1413393249505760512,-1.23636,3.309,0.872607,-0.173615,0.791315,0.25869,0.526078,0.0799627,-0.0939069,-0.026335,-0.0046702,0.0204052,0.0626513,0.0982992,0.508114,0.539545
1413393249555760384,-1.23314,3.30461,0.869279,-0.167273,0.789367,0.263989,0.528422,0.0740496,-0.0715548,-0.0516307,-0.00466556,0.0203811,0.0626464,0.0971263,0.506223,0.532358
1413393249605760512,-1.24948,3.30186,0.810969,-0.162335,0.779341,0.263885,0.544647,0.0565375,-0.0364241,-0.0782396,-0.00469415,0.019839,0.0624523,-0.0137283,0.448556,0.237977
1413393249655760384,-1.23278,3.31595,0.79834,-0.158577,0.776924,0.268788,0.546805,0.0391177,-0.00190269,-0.117478,-0.00473867,0.0199654,0.0623931,0.00280841,0.40907,0.276316
1413393249705760512,-1.23038,3.31688,0.795578,-0.161747,0.77681,0.268693,0.546084,0.0203635,0.0365034,-0.147066,-0.0045698,0.0199532,0.0628198,0.0102738,0.409664,0.298731
1413393249755760384,-1.23228,3.31868,0.785141,-0.165766,0.775712,0.26708,0.54723,-0.0115875,0.0673722,-0.175607,-0.00454379,0.0197968,0.0629456,0.00128883,0.402855,0.273429
1413393249805760512,-1.23306,3.32278,0.776594,-0.17107,0.775452,0.265176,0.546892,-0.0408064,0.0917673,-0.186397,-0.00446211,0.019813,0.0631542,0.00465496,0.402735,0.278894
1413393249855760384,-1.23556,3.32786,0.767053,-0.175445,0.774601,0.263267,0.547634,-0.0590221,0.108335,-0.198072,-0.00442091,0.0198059,0.0632769,0.00680594,0.401962,0.281173
1413393249905760512,-1.19532,3.34594,0.826095,-0.178195,0.787571,0.268245,0.52538,-0.0918151,0.119324,-0.199968,-0.00497244,0.0207959,0.0619644,0.198296,0.483689,0.752847
1413393249955760384,-1.20015,3.35223,0.81648,-0.180326,0.787831,0.267679,0.524549,-0.103076,0.129561,-0.181743,-0.0049721,0.0207872,0.0619971,0.199155,0.482742,0.752071
1413393250005760512,-1.20544,3.35886,0.807298,-0.181493,0.790105,0.266651,0.521241,-0.106667,0.125425,-0.173939,-0.00496412,0.0207823,0.0620482,0.200129,0.48217,0.751866
1413393250055760384,-1.21114,3.36608,0.798633,-0.180486,0.792536,0.266939,0.517741,-0.117107,0.159159,-0.173996,-0.00495721,0.0207388,0.062065,0.200637,0.480542,0.752279
1413393250105760512,-1.21696,3.37427,0.790567,-0.179244,0.795025,0.267266,0.514176,-0.115599,0.170385,-0.153651,-0.00495679,0.0207195,0.0620887,0.200604,0.479038,0.753022
1413393250155760384,-1.22259,3.3833,0.783355,-0.178402,0.796977,0.266536,0.51182,-0.11159,0.188948,-0.143025,-0.00497519,0.02067,0.062093,0.200975,0.476754,0.75347
