#timestamp, p_RS_R_x [m], p_RS_R_y [m], p_RS_R_z [m], q_RS_w [], q_RS_x [], q_RS_y [], q_RS_z [], v_RS_R_x [m s^-1], v_RS_R_y [m s^-1], v_RS_R_z [m s^-1], b_w_RS_S_x [rad s^-1], b_w_RS_S_y [rad s^-1], b_w_RS_S_z [rad s^-1], b_a_RS_S_x [m s^-2], b_a_RS_S_y [m s^-2], b_a_RS_S_z [m s^-2]
1413393212255760384,-1.07611,0.492467,1.32992,0.602589,-0.00181322,-0.798042,0.00347094,-0.00122076,0.00655956,0.0012763,-0.00039347,0.00472607,0.0164,-0.00162379,2.97086e-05,0.000451162
1413393212305760512,-1.13486,0.518819,1.3759,0.602646,-0.00118174,-0.797998,0.0039749,-0.000685164,0.00234533,0.000628658,-0.000391008,0.00479801,0.0166599,-0.00231352,4.19496e-05,0.000644464
1413393212355760384,-0.653989,0.151524,1.33244,0.602605,0.00724959,-0.797939,0.0104119,-0.00384125,-0.00159713,0.000536509,-0.000414472,0.00486575,0.0169313,-0.00297244,6.17269e-05,0.000832463
1413393212405760512,-0.833215,0.282972,1.02332,0.602558,0.00907739,-0.797936,0.0118738,-0.00246749,0.00120655,-0.000703644,-0.000429288,0.00495223,0.0172019,-0.0037478,9.14071e-05,0.00109462
1413393212455760384,-0.894402,0.329124,1.16153,0.60222,0.023089,-0.797684,0.0223052,-0.000131334,-0.00146656,0.00139296,-0.000418783,0.00502344,0.0174677,-0.00405274,0.00011432,0.00131992
1413393212505760512,-0.841574,0.291948,0.0269043,0.602608,0.0124212,-0.79781,0.0144856,-0.00193118,-0.00440873,0.00170344,-0.000434768,0.00510217,0.0177126,-0.00506547,0.000161163,0.00141598
1413393212555760384,-0.855277,0.303883,0.453533,0.602328,0.0228096,-0.797613,0.0222384,-0.00105502,-0.00513792,-0.0011188,-0.000448954,0.0051769,0.0179789,-0.00524297,8.5472e-05,0.00148062
1413393212605760512,-0.847926,0.301406,0.463826,0.602381,0.0209474,-0.797657,0.0210346,-0.00146536,0.00210786,-0.000404051,-0.000464829,0.00524926,0.0182444,-0.00590125,0.000212668,0.00162503
1413393212655760384,-0.850243,0.300375,0.289009,0.602462,0.0178798,-0.797734,0.0184603,-0.00146397,-0.000524484,-0.000322293,-0.000482531,0.0053247,0.0185165,-0.00687169,0.000116302,0.00180785
1413393212705760512,-0.848056,0.297953,0.305546,0.602558,0.0153123,-0.797748,0.0169878,0.00189582,-0.00257907,0.000122783,-0.000483513,0.00538898,0.0187307,-0.00754346,0.000189092,0.00176163
1413393212755760384,-0.84384,0.291391,0.193089,0.602565,0.0149228,-0.797766,0.0162071,0.00153968,0.00178945,0.00119593,-0.000489258,0.00546658,0.0189824,-0.00818656,0.000475158,0.00193864
1413393212805760512,-0.866119,0.317015,0.56717,0.602062,0.0308452,-0.797344,0.0285123,0.00045066,-0.00169778,0.000545355,-0.000483822,0.00553633,0.0192183,-0.00806406,0.00120797,0.00226431
1413393212855760384,-0.867961,0.32103,0.407122,0.601983,0.0298737,-0.797469,0.0277157,0.000159172,0.00173519,0.000455376,-0.0004838,0.00559754,0.0194602,-0.00821696,0.00221523,0.00322538
1413393212905760512,-0.861654,0.315809,0.339128,0.602141,0.0248656,-0.797644,0.0239203,-0.00164449,0.00177982,-0.000518742,-0.000507972,0.0056751,0.0197124,-0.00902063,0.00212918,0.00330253
1413393212955760384,-0.85484,0.308281,0.297493,0.602306,0.020679,-0.797726,0.0208445,-0.00236925,-0.00177598,-0.00192759,-0.00053208,0.00573877,0.0199436,-0.00985049,0.0017347,0.00317835
1413393213005760512,-0.844792,0.296995,0.341922,0.602589,0.0147973,-0.797751,0.0161431,-0.000972048,0.00136902,-0.00111539,-0.000527235,0.0058042,0.0201821,-0.0109636,0.000603532,0.00189283
1413393213055760384,-0.866726,0.320131,-0.055173,0.60189,0.0297052,-0.797542,0.0278209,-0.00120486,-0.000603401,-0.00206096,-0.000511979,0.00587499,0.0204371,-0.0102662,0.00322008,0.00503836
1413393213105760512,-0.844369,0.297605,-0.0450534,0.602664,0.0153476,-0.797673,0.0166819,-0.00229585,-0.00120659,-0.00444698,-0.000518238,0.00594144,0.0206618,-0.012379,8.15661e-05,0.00110294
1413393213155760384,-0.842557,0.295776,-0.0336835,0.602658,0.0147222,-0.797702,0.0160914,-0.00136936,0.000271311,-0.000942884,-0.000518289,0.00598728,0.0208768,-0.0127181,3.50744e-05,0.000938027
1413393213205760512,-0.841121,0.294768,-0.0382651,0.602721,0.0142983,-0.797667,0.0158185,0.000352112,0.00119659,0.000117133,-0.000528434,0.00606237,0.021099,-0.0131178,-2.53054e-05,0.00112144
1413393213255760384,-0.836485,0.290929,-0.0800055,0.602751,0.012035,-0.797718,0.0139,0.0018611,5.15061e-05,0.00291542,-0.000522189,0.00610272,0.0213018,-0.0134768,-0.00032904,0.000612519
1413393213305760512,-0.833484,0.288473,-0.0690112,0.602815,0.0106244,-0.797709,0.0127675,0.00117243,-0.00185486,0.00322196,-0.000535563,0.00616928,0.0215481,-0.0144987,-0.000700106,0.000642163
1413393213355760384,-0.831113,0.285453,-0.0698082,0.602865,0.00876259,-0.797708,0.0118171,0.00232561,0.0020786,0.0012593,-0.000532072,0.00625748,0.0218247,-0.0156836,-0.00121352,0.000342628
1413393213405760512,-0.848275,0.304495,-0.00699302,0.602335,0.0198747,-0.79774,0.0202083,0.00257214,0.00251675,0.0036759,-0.000521881,0.00631197,0.0220581,-0.0150628,0.00309363,0.00373398
1413393213455760384,-0.858537,0.315332,0.00473157,0.601856,0.0251569,-0.797832,0.0245282,0.000949837,-0.000633954,0.00141044,-0.000529075,0.00639667,0.0222826,-0.0141252,0.00478016,0.00793805
1413393213505760512,-0.861534,0.317965,0.0587899,0.601634,0.0267543,-0.797917,0.0254873,-0.000920471,-0.000256334,0.00173702,-0.000534574,0.00647164,0.0224853,-0.014037,0.00483943,0.0098191
1413393213555760384,-0.84879,0.307556,-0.106234,0.602028,0.0218402,-0.79788,0.0217504,-0.000630272,0.00152946,0.00234743,-0.000534707,0.00655053,0.02272,-0.015465,0.00480814,0.00632917
1413393213605760512,-0.853669,0.313079,-0.133156,0.601867,0.0242792,-0.797875,0.0237328,0.000222725,0.00269125,0.00146125,-0.000529985,0.00662997,0.0229921,-0.0155323,0.00522994,0.00833347
1413393213655760384,-0.852749,0.311719,-0.119526,0.60193,0.0236695,-0.797864,0.0231028,0.00022456,0.000516526,-0.000358607,-0.000549933,0.00668912,0.0231484,-0.015796,0.00530318,0.00778329
1413393213705760512,-0.853718,0.312717,-0.117954,0.601902,0.0242872,-0.797847,0.023771,0.000388675,-0.00173468,-0.000882624,-0.000568235,0.00676499,0.0233958,-0.0165693,0.00516944,0.00896336
1413393213755760384,-0.85347,0.312302,-0.117683,0.601866,0.0244359,-0.797866,0.0238783,0.000736244,-0.000283955,-0.00256329,-0.000573558,0.00680949,0.0235705,-0.0165672,0.00544269,0.0092094
1413393213805760512,-0.85334,0.312151,-0.125247,0.601897,0.0244567,-0.797842,0.0238739,-0.000220496,-2.0787e-05,-0.00533511,-0.000593232,0.0068507,0.0237548,-0.0166916,0.00559065,0.00905511
1413393213855760384,-0.851782,0.310238,-0.118457,0.601964,0.0238548,-0.797822,0.023482,-0.00105416,-0.00114878,-0.00342106,-0.000617085,0.00692929,0.0239767,-0.0176399,0.00562217,0.00873681
1413393213905760512,-0.851194,0.309394,-0.118307,0.601931,0.0237102,-0.797857,0.0232648,9.45497e-05,-0.00307498,-0.00371256,-0.000574851,0.00697394,0.0241717,-0.0176857,0.00633987,0.00831362
1413393213955760384,-0.851573,0.310044,-0.132562,0.601835,0.0242984,-0.797899,0.0237207,0.00127646,-0.00327209,-0.00100069,-0.000593371,0.00702095,0.0244019,-0.0182765,0.00628082,0.00933255
1413393214005760512,-0.85118,0.309358,-0.136891,0.601755,0.0242393,-0.797959,0.0237845,0.00030665,0.0105432,0.00242701,-0.000588299,0.00710644,0.0246325,-0.0193469,0.00631511,0.00980278
1413393214055760384,-0.852715,0.310952,-0.135243,0.601827,0.0251666,-0.79786,0.0243054,0.00221732,0.00746731,0.000261695,-0.000564833,0.00713095,0.0248243,-0.0199971,0.00700296,0.0107464
1413393214105760512,-0.854595,0.312797,-0.140354,0.601504,0.0260693,-0.798053,0.0250013,0.00024944,0.00276418,0.0015387,-0.0005756,0.00721353,0.0250144,-0.0197774,0.00688271,0.0113127
1413393214155760384,-0.853719,0.311514,-0.134087,0.60177,0.0254754,-0.797884,0.0246004,0.00264406,0.000327635,0.000446864,-0.000567503,0.00727418,0.0252101,-0.0203766,0.00692136,0.0111462
1413393214205760512,-0.853501,0.31133,-0.129588,0.601661,0.0255621,-0.797956,0.0248338,0.000141949,0.00222547,0.000216567,-0.000588703,0.00734025,0.025447,-0.0206562,0.00677312,0.0119329
1413393214255760384,-0.853819,0.311687,-0.127742,0.601778,0.0257536,-0.797867,0.0246592,2.51165e-07,0.000842518,0.000311973,-0.000587881,0.00738604,0.0256181,-0.0207224,0.00683697,0.0122046
1413393214305760512,-0.853757,0.311683,-0.129354,0.601758,0.0256714,-0.797879,0.0248686,0.000809671,-0.00303097,-0.00103513,-0.000603123,0.00746473,0.0258599,-0.0215556,0.006715,0.0134655
1413393214355760384,-0.853008,0.31113,-0.142165,0.601795,0.0256044,-0.797856,0.0247756,-9.68577e-06,0.00148796,0.000821383,-0.000644433,0.00751984,0.0260163,-0.0222279,0.00672127,0.0135784
1413393214405760512,-0.852637,0.310559,-0.12816,0.601798,0.0253309,-0.797871,0.0245032,0.000345827,-0.000494525,0.000123322,-0.000656607,0.00761277,0.0261834,-0.0226529,0.00638064,0.0131549
1413393214455760384,-0.852395,0.30988,-0.11848,0.601869,0.0251598,-0.797822,0.0245169,-0.000612899,0.000694001,0.001134,-0.000679702,0.00760668,0.0263758,-0.022616,0.00680713,0.0134332
1413393214505760512,-0.851994,0.308539,-0.0987213,0.601892,0.0246999,-0.797834,0.0240124,-0.00115371,4.69797e-05,0.00271915,-0.000669489,0.0076733,0.026598,-0.0233063,0.00700009,0.0135435
1413393214555760384,-0.851699,0.306809,-0.0478758,0.601968,0.024045,-0.797808,0.0236584,-0.000680054,-0.00127475,0.000995947,-0.000696548,0.00775987,0.0267294,-0.0234735,0.00740653,0.0128278
1413393214605760512,-0.849605,0.302764,0.0808556,0.602034,0.0229702,-0.797819,0.0226487,-0.00211541,0.000588043,0.000146113,-0.000699597,0.00779917,0.0269533,-0.0242179,0.00724992,0.0120922
1413393214655760384,-0.846851,0.299812,0.0194853,0.602112,0.0216146,-0.797825,0.0216737,0.000223996,-0.00179471,0.000959384,-0.000733059,0.00786028,0.027102,-0.0247953,0.00563105,0.0133575
1413393214705760512,-0.844053,0.297036,-0.0182388,0.602126,0.0205151,-0.797866,0.0208351,-0.00132159,-0.000335947,-0.00195162,-0.00073671,0.00795017,0.0273202,-0.0253417,0.00612632,0.0136985
1413393214755760384,-0.841757,0.296105,-0.108415,0.602071,0.0195901,-0.797951,0.0200348,-0.00013345,-0.00117647,-0.00117846,-0.000753978,0.00798504,0.0274722,-0.0250554,0.00541311,0.0156283
1413393214805760512,-0.839751,0.294688,-0.0881346,0.601937,0.018531,-0.798094,0.0193557,0.000959749,-4.96113e-05,-0.00127202,-0.000752918,0.00800479,0.0276352,-0.0241601,0.00623048,0.0191499
1413393214855760384,-0.837837,0.295079,-0.267296,0.601746,0.0176382,-0.798275,0.018651,-0.000786569,0.00119365,-0.00169055,-0.000829161,0.00808961,0.0278153,-0.0235038,0.00539454,0.0241966
1413393214905760512,-0.83894,0.297196,-0.254549,0.601437,0.0170709,-0.79853,0.0181998,0.00104883,-4.94074e-05,-0.00146464,-0.000805618,0.00811002,0.02802,-0.020997,0.00663009,0.0308844
1413393214955760384,-0.83635,0.296476,-0.264486,0.601097,0.0161623,-0.798818,0.017644,0.000501673,0.000765897,-0.000282075,-0.000777537,0.00815083,0.0282089,-0.0189343,0.00867376,0.0377509
1413393215005760512,-0.835878,0.296174,-0.240071,0.600619,0.0154259,-0.799204,0.0170909,0.00101267,0.00152659,0.000657631,-0.000779472,0.00821133,0.028354,-0.0163921,0.0102976,0.0473369
1413393215055760384,-0.836031,0.295807,-0.243333,0.600136,0.014365,-0.799606,0.0161753,-0.000392282,-0.00202246,0.00215807,-0.000783606,0.00829153,0.028547,-0.0150307,0.0101441,0.054925
1413393215105760512,-0.832597,0.294964,-0.320284,0.599603,0.0134512,-0.800028,0.0158333,-0.00147991,-0.00735056,-0.00353496,-0.000785282,0.00832577,0.0287408,-0.0124735,0.0126482,0.0652097
1413393215155760384,-0.824913,0.290286,-0.325582,0.600306,0.0102162,-0.799595,0.0133163,-0.000626255,-0.0019986,-0.00155956,-0.000801605,0.00834343,0.0289186,-0.0159984,0.0121604,0.0557421
1413393215205760512,-0.825415,0.292553,-0.373914,0.599854,0.0106508,-0.799925,0.0134832,-0.00153044,-0.00312428,-0.00347615,-0.000779604,0.00842492,0.0290889,-0.0155291,0.0130118,0.0621005
1413393215255760384,-0.823184,0.290824,-0.400956,0.599759,0.00972331,-0.800016,0.0130243,-0.00174452,-0.00306044,-0.00438999,-0.000783741,0.00840492,0.0292042,-0.0144004,0.0134668,0.066554
1413393215305760512,-0.823223,0.292523,-0.449013,0.599394,0.0099875,-0.800284,0.0131474,-0.00318793,-0.00209708,-0.00396267,-0.000786853,0.00849672,0.0294363,-0.0131718,0.0140357,0.0742287
1413393215355760384,-0.821377,0.29069,-0.458054,0.599254,0.00920079,-0.800409,0.0125137,-0.00148487,-0.00361109,-0.0039438,-0.000786571,0.00852645,0.0295538,-0.0131069,0.0137842,0.0779562
1413393215405760512,-0.82125,0.291335,-0.480862,0.598742,0.00925794,-0.80079,0.0125533,-0.00260846,-0.00152692,-0.00235899,-0.000791247,0.00857935,0.029766,-0.0116894,0.0135966,0.0861969
1413393215455760384,-0.81981,0.288608,-0.454555,0.598539,0.00870404,-0.800958,0.0119688,-0.00505876,-0.00126587,-2.13855e-05,-0.000815289,0.00870104,0.0299351,-0.0126108,0.0130988,0.0881495
1413393215505760512,-0.820593,0.288531,-0.426249,0.598091,0.00876978,-0.80129,0.0120721,-0.00327885,-0.00238332,-0.00155936,-0.000823276,0.00874649,0.0301112,-0.0111435,0.0110627,0.0966233
1413393215555760384,-0.820135,0.289673,-0.490021,0.597629,0.00873206,-0.801638,0.011858,-0.00702454,-0.00337736,0.000898228,-0.000853462,0.00879674,0.0302468,-0.00885096,0.0112988,0.104832
1413393215605760512,-0.819675,0.291053,-0.567586,0.597287,0.00887111,-0.80189,0.0119114,-0.00859244,-0.00484898,0.00391676,-0.0008362,0.00886485,0.0304153,-0.00751732,0.0118522,0.112229
1413393215655760384,-0.818825,0.28998,-0.567362,0.597124,0.00820189,-0.802022,0.0117358,-0.00721279,-0.00161251,0.00416393,-0.000840562,0.00891815,0.0305273,-0.00775868,0.0115651,0.112265
1413393215705760512,-0.815079,0.286522,-0.583185,0.596826,0.00740883,-0.802259,0.0111655,-0.00309619,-0.0043388,-0.00253449,-0.000839904,0.00898794,0.0306661,-0.00930141,0.0120866,0.106326
1413393215755760384,-0.812048,0.282108,-0.529408,0.596677,0.00695786,-0.802382,0.0105063,-0.0004709,-0.00106981,-0.00419212,-0.000795683,0.00903569,0.0307882,-0.0113144,0.0126716,0.0979196
1413393215805760512,-0.81033,0.280824,-0.532427,0.596429,0.00679991,-0.802573,0.0101353,0.00339755,-0.00275916,0.0107801,-0.000781008,0.00909039,0.0309507,-0.012773,0.0118205,0.0942618
1413393215855760384,-0.806639,0.278259,-0.560852,0.59653,0.00642429,-0.802506,0.00973072,0.00028361,0.000615077,0.00863107,-0.00081806,0.00912674,0.0311623,-0.0153967,0.0109352,0.0875335
1413393215905760512,-0.803185,0.276537,-0.610499,0.596776,0.00601796,-0.802329,0.00950659,0.000273498,0.000126798,0.00893061,-0.000787653,0.00917826,0.0313357,-0.0181863,0.0109593,0.0798998
1413393215955760384,-0.801201,0.275552,-0.64156,0.596947,0.00551769,-0.802203,0.00975729,0.00420457,0.00333896,0.00711315,-0.000737475,0.0092525,0.0315432,-0.0208764,0.0106627,0.0751203
1413393216005760512,-0.799368,0.273363,-0.605096,0.597274,0.00559631,-0.801965,0.0091894,0.00950709,0.00343448,0.00833903,-0.000796664,0.009288,0.0316958,-0.022483,0.0101485,0.0704515
1413393216055760384,-0.798444,0.27239,-0.599019,0.597361,0.00604051,-0.801903,0.0087203,0.00136062,0.00425528,0.00443855,-0.000721786,0.00930437,0.0318299,-0.0227624,0.0115587,0.0695151
1413393216105760512,-0.797396,0.271605,-0.590297,0.597541,0.00586895,-0.801767,0.00895331,-2.31182e-05,0.00378657,-0.0058703,-0.00072859,0.00935316,0.0319926,-0.0250337,0.0110669,0.064203
1413393216155760384,-0.795939,0.269662,-0.56797,0.598158,0.00586816,-0.801311,0.00851536,-0.0019073,0.00144037,-0.00214526,-0.000760677,0.009398,0.0321377,-0.0270341,0.0107487,0.0595014
1413393216205760512,-0.794781,0.268582,-0.568458,0.598088,0.00567286,-0.801366,0.00843937,-0.00457961,0.00370539,-0.00439353,-0.000721031,0.00944257,0.0323047,-0.0286344,0.0100977,0.0572951
1413393216255760384,-0.793682,0.267317,-0.572147,0.597296,0.0059214,-0.801954,0.00852356,-0.012724,0.00233293,0.00132333,-0.00072917,0.00949766,0.0324559,-0.0309127,0.0101122,0.0515411
1413393216305760512,-0.793311,0.266375,-0.573808,0.596232,0.00584181,-0.802745,0.00854798,-0.00933895,-0.00555207,-0.000211071,-0.000753782,0.00955388,0.0326442,-0.0320149,0.00964108,0.0518893
1413393216355760384,-0.792265,0.26532,-0.581193,0.595906,0.00531141,-0.802991,0.00864617,-0.00146195,0.00030523,-0.00315998,-0.000741845,0.00963764,0.0327357,-0.0327943,0.00916886,0.0497336
1413393216405760512,-0.791939,0.264762,-0.582631,0.595454,0.00536191,-0.803325,0.00867629,-0.00158277,-0.0119939,-0.00723407,-0.000733489,0.00967089,0.0328634,-0.0328135,0.00898122,0.0490725
1413393216455760384,-0.792196,0.264403,-0.585862,0.595548,0.00567109,-0.803257,0.00832579,-0.00638185,-0.00629377,0.0108685,-0.000763203,0.00968356,0.0329918,-0.0322639,0.00858095,0.049924
1413393216505760512,-0.792461,0.26429,-0.585613,0.59381,0.00527288,-0.80455,0.00782583,0.00122159,0.00508328,0.0122511,-0.000714342,0.00967141,0.0331194,-0.032075,0.00819863,0.0506705
1413393216555760384,-0.792711,0.264705,-0.583866,0.593122,0.00482524,-0.805068,0.00700291,-0.000145199,0.00951887,-0.0197071,-0.000742608,0.00968115,0.033212,-0.031923,0.00756013,0.0501232
1413393216605760512,-0.792675,0.265348,-0.584632,0.592688,0.00346187,-0.805392,0.00736925,-0.000368714,0.019508,-0.0124261,-0.000753551,0.00969468,0.033389,-0.0328413,0.00735607,0.0489859
1413393216655760384,-0.792984,0.266375,-0.593156,0.593352,0.00350742,-0.80491,0.00639957,0.000722173,0.00777552,0.0232297,-0.000692545,0.00972396,0.0335288,-0.0336075,0.00806028,0.0472682
1413393216705760512,-0.792915,0.267188,-0.585956,0.594109,0.0039854,-0.804365,0.00412577,0.0186193,0.0213512,0.0356389,-0.000735695,0.00976234,0.0336255,-0.0344773,0.00813053,0.0475964
1413393216755760384,-0.792072,0.268986,-0.597175,0.594389,0.00465937,-0.804164,0.00104371,0.0124806,0.0194179,0.0480192,-0.000746023,0.00978502,0.0338015,-0.0353959,0.00804924,0.0470532
1413393216805760512,-0.792427,0.269197,-0.533347,0.595176,0.00552698,-0.803576,-0.00098716,0.0190763,0.00968829,0.0875542,-0.000754441,0.0098469,0.0339344,-0.0368518,0.00805245,0.0451962
1413393216855760384,-0.793153,0.270782,-0.488868,0.596144,0.00691342,-0.802844,-0.00259755,0.0283879,0.0120733,0.0935223,-0.000763541,0.00988646,0.0340907,-0.0382955,0.00772175,0.0426969
1413393216905760512,-0.793141,0.276706,-0.529287,0.598198,0.00899092,-0.801292,-0.00311009,0.0407666,-0.000423631,0.129394,-0.000784954,0.00993413,0.0342266,-0.0401659,0.00714521,0.0387338
1413393216955760384,-0.779586,0.264402,-0.62797,0.59673,0.00179703,-0.802347,-0.0122619,0.0502717,-0.00304534,0.144468,-0.000694993,0.00999087,0.0343353,-0.0301713,0.0117926,0.0704861
1413393217005760512,-0.794262,0.296116,-0.855725,0.597825,0.0136605,-0.80149,-0.00573427,0.0625118,-0.0103271,0.161201,-0.000803651,0.0100543,0.0344946,-0.0411722,0.00821824,0.0354012
1413393217055760384,-0.771534,0.260169,-0.628704,0.59339,0.000657339,-0.804753,-0.0161473,0.0690821,-0.037377,0.22618,-0.000697337,0.010102,0.0346313,-0.0245544,0.0135127,0.0862237
1413393217105760512,-0.793833,0.296765,-0.693364,0.594454,0.0171051,-0.803937,-0.00428888,0.0867554,-0.0396156,0.273639,-0.000865736,0.0101628,0.0347719,-0.0373307,0.0107871,0.0449827
1413393217155760384,-0.758794,0.254479,-0.5988,0.590286,-0.000593754,-0.807033,-0.0161053,0.0894114,-0.0673749,0.27661,-0.000705112,0.0101547,0.0348813,-0.0178529,0.020418,0.102857
1413393217205760512,-0.74962,0.252062,-0.620423,0.588987,-7.01155e-05,-0.808003,-0.0150584,0.101843,-0.0812388,0.263453,-0.000691588,0.0101793,0.0349968,-0.0127485,0.0278039,0.116861
1413393217255760384,-0.752896,0.255377,-0.613918,0.58857,0.00129071,-0.808295,-0.0155703,0.103311,-0.0900599,0.244299,-0.000674711,0.0101859,0.0351462,-0.00697224,0.0305004,0.133033
1413393217305760512,-0.747479,0.249015,-0.575802,0.588134,0.00170134,-0.808594,-0.0164823,0.112609,-0.106923,0.205096,-0.000702826,0.0102391,0.0352741,-0.00791182,0.0316702,0.132845
1413393217355760384,-0.753556,0.250382,-0.529138,0.587573,0.00211606,-0.809003,-0.0163815,0.123001,-0.125097,0.169991,-0.000717202,0.0102616,0.035389,-0.01041,0.0304249,0.127017
1413393217405760512,-0.74763,0.24684,-0.543145,0.586783,0.00254919,-0.809564,-0.0169186,0.139644,-0.131526,0.156556,-0.000725609,0.0102796,0.035517,-0.0125596,0.0287535,0.122795
1413393217455760384,-0.736261,0.23978,-0.56952,0.586112,0.00246342,-0.810055,-0.0167055,0.150063,-0.1566,0.139905,-0.000727486,0.0103464,0.0356606,-0.0154691,0.0275071,0.117648
1413393217505760512,-0.722402,0.227836,-0.558901,0.585996,0.00335584,-0.810138,-0.0165718,0.151739,-0.178286,0.127187,-0.000746954,0.010375,0.0357527,-0.0185462,0.0336709,0.109024
1413393217555760384,-0.716553,0.217393,-0.518194,0.586638,0.00383114,-0.809667,-0.0167644,0.172634,-0.177986,0.104037,-0.000779145,0.0104283,0.0359147,-0.0233218,0.0299574,0.0965037
1413393217605760512,-0.709308,0.210736,-0.523925,0.587315,0.00513483,-0.809169,-0.0167578,0.176047,-0.211401,0.0862716,-0.000781133,0.0104741,0.0360038,-0.0271059,0.0275461,0.0854203
1413393217655760384,-0.700569,0.203486,-0.568046,0.588198,0.00819483,-0.808541,-0.0147267,0.189284,-0.214704,0.0949873,-0.000796451,0.0105034,0.0361045,-0.0333415,0.0237616,0.0638161
1413393217705760512,-0.690867,0.192343,-0.55936,0.588411,0.00820285,-0.808385,-0.014796,0.194169,-0.232657,0.139163,-0.000827739,0.010541,0.0362508,-0.0340771,0.0237098,0.0616159
1413393217755760384,-0.681359,0.181137,-0.551267,0.588768,0.00896818,-0.808128,-0.0141533,0.202909,-0.260714,0.185074,-0.000843144,0.0106152,0.0363601,-0.0346826,0.0242274,0.0601977
1413393217805760512,-0.671091,0.168056,-0.54119,0.588609,0.00867052,-0.808254,-0.0137992,0.21087,-0.265013,0.217973,-0.000825792,0.0106195,0.0364473,-0.0343804,0.0246592,0.058469
1413393217855760384,-0.660205,0.154346,-0.531387,0.588596,0.00788347,-0.808279,-0.0133684,0.220568,-0.277465,0.242236,-0.000878428,0.0106548,0.0366282,-0.0337626,0.0257843,0.0591803
1413393217905760512,-0.649099,0.139482,-0.517161,0.58866,0.00778497,-0.808241,-0.01283,0.220829,-0.304591,0.279206,-0.000865166,0.0106918,0.0367113,-0.0328991,0.0263318,0.0570222
1413393217955760384,-0.637817,0.124122,-0.503131,0.589338,0.00746518,-0.807751,-0.0127599,0.229775,-0.306522,0.297206,-0.000881168,0.0107481,0.0368744,-0.033418,0.026672,0.0572882
1413393218005760512,-0.626049,0.108019,-0.488383,0.589007,0.00630836,-0.80802,-0.0116429,0.23667,-0.327598,0.27237,-0.000895568,0.0108168,0.0370225,-0.0334136,0.0268589,0.0568661
1413393218055760384,-0.613884,0.0910857,-0.475884,0.589449,0.00417054,-0.807748,-0.00867651,0.241162,-0.340758,0.219023,-0.000891033,0.0108086,0.0370562,-0.0320327,0.027682,0.0571084
1413393218105760512,-0.601613,0.0739607,-0.465513,0.589002,0.00139096,-0.808112,-0.00546785,0.245531,-0.333102,0.19023,-0.000898332,0.0108294,0.0371999,-0.0323119,0.0278381,0.0561622
1413393218155760384,-0.589189,0.0567393,-0.457633,0.588912,-0.00259622,-0.808193,-0.000249593,0.248322,-0.352315,0.138903,-0.000915357,0.0108296,0.0373339,-0.0325014,0.0291519,0.0569461
1413393218205760512,-0.576294,0.039074,-0.451781,0.589122,-0.00643046,-0.807997,0.00599173,0.258434,-0.346966,0.0876788,-0.00089001,0.0108518,0.0373979,-0.0330241,0.0296974,0.0559151
1413393218255760384,-0.562856,0.0222755,-0.448195,0.588209,-0.0111144,-0.808547,0.011818,0.274616,-0.313181,0.0395577,-0.000851921,0.0108757,0.0375132,-0.0338557,0.0304005,0.0551681
1413393218305760512,-0.549272,0.00643927,-0.447625,0.586786,-0.0147041,-0.809445,0.0162936,0.26801,-0.3147,0.00418813,-0.000935289,0.0109539,0.037659,-0.0357923,0.0309782,0.0558512
1413393218355760384,-0.535421,-0.00865785,-0.448037,0.586555,-0.0145048,-0.809609,0.0166384,0.277083,-0.285687,-0.035483,-0.000865861,0.0109383,0.0377394,-0.0363943,0.0317219,0.0553813
1413393218405760512,-0.521306,-0.0223692,-0.450087,0.587358,-0.0123392,-0.809146,0.0118892,0.283336,-0.247775,-0.0611207,-0.000867082,0.010983,0.0378706,-0.0375638,0.0319452,0.0556907
1413393218455760384,-0.506935,-0.0351637,-0.453899,0.587657,-0.00906966,-0.809033,0.00662357,0.286489,-0.253723,-0.0906955,-0.000938596,0.0110344,0.038006,-0.0388849,0.0317414,0.0556939
1413393218505760512,-0.492216,-0.0473734,-0.458821,0.588504,-0.00570586,-0.808473,0.00149905,0.29465,-0.236458,-0.0844507,-0.000902819,0.0110813,0.0381046,-0.0405835,0.0320727,0.0557064
1413393218555760384,-0.477249,-0.0589662,-0.463557,0.589039,-0.00288737,-0.80809,-0.00405651,0.303763,-0.21851,-0.0822181,-0.000912776,0.011104,0.0382282,-0.0419252,0.0329218,0.0544408
1413393218605760512,-0.461954,-0.0708375,-0.467591,0.590181,-0.000293676,-0.807237,-0.00746928,0.306364,-0.247522,-0.0742551,-0.000944504,0.0111657,0.0383277,-0.0433252,0.033555,0.0533412
1413393218655760384,-0.446316,-0.0830342,-0.471148,0.590926,0.00144495,-0.806666,-0.0097584,0.31767,-0.239091,-0.0741104,-0.000936063,0.011199,0.0384162,-0.0444326,0.0346409,0.0524759
1413393218705760512,-0.430285,-0.0951573,-0.474355,0.591033,0.000852023,-0.806584,-0.0101184,0.325397,-0.235959,-0.0615359,-0.000946005,0.0112275,0.0385062,-0.0453089,0.0356932,0.0525229
1413393218755760384,-0.413851,-0.107937,-0.476846,0.589536,0.00198244,-0.807665,-0.0109812,0.328643,-0.264765,-0.0587688,-0.000980717,0.0112771,0.0386096,-0.0467393,0.0361322,0.0502324
1413393218805760512,-0.397101,-0.120795,-0.479943,0.58532,0.00110057,-0.810746,-0.00950637,0.338866,-0.252094,-0.0568709,-0.00097921,0.0113465,0.0387503,-0.0485053,0.0379081,0.0491435
1413393218855760384,-0.380221,-0.133864,-0.483073,0.578608,-0.00266169,-0.815581,-0.00584654,0.335619,-0.252751,-0.0483098,-0.000994383,0.0114177,0.0388322,-0.0497661,0.0388337,0.0483972
1413393218905760512,-0.363775,-0.14707,-0.485501,0.571773,-0.00518422,-0.820393,-0.0020554,0.32222,-0.268014,-0.0447958,-0.00102688,0.0113956,0.0389495,-0.0490217,0.0423834,0.0494242
1413393218955760384,-0.34808,-0.159724,-0.487772,0.56598,-0.00736718,-0.824386,0.00063375,0.30622,-0.245198,-0.0169175,-0.00100793,0.0114001,0.0389787,-0.0482956,0.0446997,0.0493208
1413393219005760512,-0.333579,-0.171799,-0.488635,0.562295,-0.00934268,-0.826881,0.00219725,0.28112,-0.235255,0.0069396,-0.00104536,0.0114418,0.0391254,-0.0489393,0.0467791,0.0515525
1413393219055760384,-0.320447,-0.183786,-0.48815,0.560403,-0.0101748,-0.828147,0.0041516,0.251248,-0.236088,0.0309082,-0.00104079,0.0114626,0.039167,-0.0491482,0.0480218,0.0482289
1413393219105760512,-0.308668,-0.195051,-0.485722,0.560784,-0.00997196,-0.827892,0.00424302,0.22807,-0.2155,0.0625182,-0.00103111,0.0114665,0.0392809,-0.0499856,0.0492966,0.0462412
1413393219155760384,-0.298016,-0.205981,-0.481167,0.561929,-0.0102719,-0.827106,0.00516003,0.20279,-0.205125,0.0718682,-0.00107486,0.0115476,0.039403,-0.0521019,0.0499675,0.0465332
1413393219205760512,-0.288461,-0.216261,-0.476676,0.562763,-0.00980934,-0.82654,0.00569715,0.180135,-0.203419,0.0899804,-0.00112634,0.0115599,0.0394718,-0.0524516,0.0511462,0.0461327
1413393219255760384,-0.279959,-0.226295,-0.470354,0.564379,-0.00938375,-0.825438,0.00646783,0.159663,-0.191058,0.113159,-0.00106081,0.0116102,0.0395544,-0.0529983,0.0545103,0.0431746
1413393219305760512,-0.272625,-0.235674,-0.464996,0.565505,-0.00827919,-0.824675,0.00683718,0.129207,-0.173845,0.119402,-0.00108625,0.0116408,0.0396876,-0.0527933,0.0570005,0.0420566
1413393219355760384,-0.266937,-0.244062,-0.458959,0.565833,-0.00795262,-0.824447,0.00759339,0.0924115,-0.172624,0.125544,-0.00106622,0.0116669,0.0397948,-0.0534119,0.0598076,0.0401271
1413393219405760512,-0.262859,-0.252235,-0.453583,0.566335,-0.00809544,-0.824082,0.00936147,0.0634171,-0.160249,0.11761,-0.00102021,0.0117683,0.0398916,-0.0550662,0.0622774,0.0381052
1413393219455760384,-0.260645,-0.259794,-0.449099,0.567509,-0.00783979,-0.823277,0.00940822,0.0231326,-0.145646,0.0701716,-0.00104827,0.0118298,0.040006,-0.0554367,0.0639331,0.0363893
1413393219505760512,-0.260339,-0.26662,-0.445134,0.568516,-0.00736269,-0.822587,0.00935851,-0.00543532,-0.142724,0.0257129,-0.00108866,0.0119282,0.0402279,-0.0575745,0.064292,0.0369259
1413393219555760384,-0.261292,-0.273249,-0.444175,0.570181,-0.00705348,-0.821431,0.00973883,-0.0292008,-0.133401,-0.00773523,-0.0010314,0.0119439,0.0402973,-0.0577893,0.0664475,0.0366568
1413393219605760512,-0.262981,-0.279167,-0.444314,0.571833,-0.00672472,-0.820288,0.00950092,-0.0369437,-0.123565,-0.0108938,-0.00106901,0.0119745,0.0404144,-0.0578157,0.0681637,0.0365341
1413393219655760384,-0.26535,-0.284586,-0.444803,0.574037,-0.00627426,-0.818746,0.00986317,-0.0478771,-0.118682,0.0221233,-0.00103018,0.0119986,0.0405043,-0.0576676,0.0701647,0.0355443
1413393219705760512,-0.268378,-0.28918,-0.443561,0.576911,-0.00556354,-0.816735,0.00931697,-0.0614514,-0.103509,0.0821122,-0.00102528,0.012067,0.0406246,-0.0582511,0.0714741,0.0350355
1413393219755760384,-0.260086,-0.256425,-0.516088,0.579501,0.0058684,-0.814703,0.0201022,-0.0738815,-0.0953082,0.157086,-0.00123926,0.0120906,0.0406885,-0.0552353,0.142788,0.0390814
1413393219805760512,-0.263292,-0.260417,-0.504374,0.582703,0.0076394,-0.812453,0.0178842,-0.0597086,-0.0842925,0.208911,-0.00125029,0.0121105,0.0407994,-0.0553,0.144065,0.0389165
1413393219855760384,-0.266652,-0.264118,-0.491198,0.583809,0.00819666,-0.811669,0.0171546,-0.0565008,-0.0729755,0.317496,-0.00123421,0.0121371,0.0409418,-0.0558926,0.144953,0.0394742
1413393219905760512,-0.269426,-0.267576,-0.474727,0.585199,0.00918987,-0.810682,0.015937,-0.0590801,-0.0733352,0.338052,-0.00125428,0.0121805,0.0410082,-0.0559119,0.145855,0.0386852
1413393219955760384,-0.272457,-0.270865,-0.457141,0.586577,0.0105346,-0.809699,0.0143229,-0.0659687,-0.0662786,0.337512,-0.00125036,0.0121819,0.0411354,-0.056347,0.146949,0.0382856
1413393220005760512,-0.275498,-0.274258,-0.442143,0.587714,0.0110271,-0.808876,0.0138091,-0.0583017,-0.0677933,0.296588,-0.00124369,0.0122545,0.0412553,-0.0574815,0.147547,0.038296
1413393220055760384,-0.278167,-0.277475,-0.428245,0.58901,0.011287,-0.807941,0.0130905,-0.0387511,-0.071781,0.241295,-0.00127967,0.0122742,0.0413562,-0.0581193,0.147719,0.0393425
1413393220105760512,-0.279957,-0.280786,-0.416208,0.589658,0.0111779,-0.807475,0.012787,-0.0344352,-0.0677573,0.216537,-0.0012755,0.0123112,0.0414385,-0.0587016,0.149113,0.0387288
1413393220155760384,-0.281335,-0.284358,-0.406925,0.590172,0.011747,-0.807103,0.0120202,-0.0252237,-0.0763358,0.196608,-0.00122545,0.0123414,0.04152,-0.0590374,0.152738,0.0372251
1413393220205760512,-0.282644,-0.287936,-0.396482,0.590838,0.012262,-0.806616,0.0114155,-0.0218929,-0.0796922,0.218796,-0.00122613,0.0123373,0.0416128,-0.0588977,0.153986,0.0382586
1413393220255760384,-0.283682,-0.291716,-0.385062,0.591443,0.0114096,-0.806185,0.01144,-0.0165568,-0.073094,0.218003,-0.0012183,0.0123715,0.0416851,-0.0596187,0.155222,0.0380238
1413393220305760512,-0.284134,-0.295837,-0.375107,0.591961,0.0123792,-0.805806,0.0103187,-0.00382933,-0.0909597,0.223467,-0.00122152,0.0124019,0.0418014,-0.0604288,0.156197,0.0391182
1413393220355760384,-0.284186,-0.300208,-0.363782,0.592491,0.0122678,-0.805414,0.0106424,0.00218299,-0.0927816,0.227441,-0.00121058,0.0124255,0.041927,-0.0613683,0.157761,0.0398106
1413393220405760512,-0.283735,-0.304825,-0.352713,0.5926,0.011666,-0.805342,0.010693,0.0108633,-0.0886672,0.242071,-0.0011628,0.012442,0.0419485,-0.0609142,0.161479,0.0387884
1413393220455760384,-0.282916,-0.309684,-0.341078,0.591936,0.0114021,-0.805835,0.0105599,0.0271508,-0.107942,0.237213,-0.00116778,0.0124315,0.0420639,-0.0620705,0.161955,0.0401561
1413393220505760512,-0.281554,-0.315002,-0.329475,0.590081,0.0107703,-0.807196,0.011121,0.0341016,-0.110788,0.224231,-0.00119772,0.0125355,0.0422275,-0.0656693,0.160647,0.0419417
1413393220555760384,-0.279525,-0.320166,-0.320796,0.588451,0.0104361,-0.808387,0.0112552,0.0486577,-0.106135,0.185338,-0.00126055,0.0124503,0.0421059,-0.0633574,0.159193,0.0437537
1413393220605760512,-0.27707,-0.325917,-0.313351,0.587652,0.00983277,-0.808976,0.0112194,0.0456524,-0.120996,0.12844,-0.0012737,0.0125714,0.0423361,-0.0662561,0.160449,0.0439428
1413393220655760384,-0.274835,-0.331839,-0.307526,0.588293,0.00992537,-0.808506,0.0114861,0.0481764,-0.125943,0.0744009,-0.00130087,0.0126112,0.0424765,-0.068377,0.160714,0.0448305
1413393220705760512,-0.2721,-0.337782,-0.305613,0.588791,0.00894432,-0.808148,0.0119065,0.0621299,-0.11008,0.0246852,-0.00122873,0.0126828,0.0425041,-0.0695752,0.163595,0.0424807
1413393220755760384,-0.269212,-0.343749,-0.307205,0.588391,0.00719431,-0.808415,0.0144934,0.0565845,-0.134408,-0.0230347,-0.00126777,0.0126935,0.0426108,-0.0704963,0.165242,0.0436291
1413393220805760512,-0.265988,-0.349733,-0.309928,0.58613,0.00461528,-0.809996,0.0183458,0.0652461,-0.122877,-0.0140893,-0.00125195,0.0127699,0.0426927,-0.0711505,0.166789,0.0435509
1413393220855760384,-0.26276,-0.35529,-0.310264,0.584424,0.00144039,-0.811151,0.0219152,0.0674536,-0.0903511,0.0382111,-0.00127433,0.0128326,0.042802,-0.0715602,0.167396,0.0417645
1413393220905760512,-0.259466,-0.360014,-0.307632,0.583297,5.47696e-05,-0.811895,0.0243232,0.0735004,-0.108959,0.0924203,-0.0012245,0.0128471,0.0429,-0.0698581,0.170699,0.0393609
1413393220955760384,-0.256586,-0.364282,-0.301191,0.582051,-0.000843616,-0.812751,0.0255458,0.0606562,-0.0780694,0.19867,-0.00121985,0.0128672,0.0429958,-0.0691161,0.172483,0.0387264
1413393221005760512,-0.253709,-0.36725,-0.291963,0.582567,-0.00164057,-0.812421,0.0242178,0.0486361,-0.0385365,0.224094,-0.00118594,0.0128578,0.0430851,-0.0678752,0.17468,0.0381509
1413393221055760384,-0.251634,-0.369488,-0.28053,0.582004,-0.0018625,-0.812844,0.0234941,0.0411962,-0.0475173,0.253784,-0.00117382,0.0128794,0.0431506,-0.0663285,0.175844,0.0361383
1413393221105760512,-0.250135,-0.371,-0.267664,0.580935,-0.00203441,-0.813615,0.0232897,0.0276876,-0.0227131,0.265689,-0.00113038,0.0128666,0.0432291,-0.0648531,0.177904,0.0355379
1413393221155760384,-0.248835,-0.37155,-0.25361,0.580423,-0.00247672,-0.814015,0.0219957,0.0267686,0.00299033,0.281317,-0.00112375,0.0128607,0.0433096,-0.0634436,0.179167,0.0353965
1413393221205760512,-0.248302,-0.371319,-0.236926,0.579187,-0.00248723,-0.814934,0.0204466,0.0130899,-0.00709135,0.287323,-0.0011227,0.0128744,0.0433892,-0.0643841,0.180223,0.0364478
1413393221255760384,-0.247369,-0.371555,-0.228171,0.577704,-0.00158995,-0.816004,0.0198381,0.0119685,0.0117439,0.283022,-0.00115323,0.012903,0.043484,-0.0649664,0.180103,0.0361675
1413393221305760512,-0.247099,-0.370447,-0.214368,0.576093,-0.00125389,-0.817203,0.0171943,0.00866918,0.0294502,0.268554,-0.00120529,0.0129221,0.0435675,-0.0655674,0.180096,0.0359541
1413393221355760384,-0.24691,-0.369764,-0.209119,0.574394,-0.000946001,-0.818409,0.0166587,-0.00691369,0.0174699,0.304865,-0.00121532,0.0129331,0.0436204,-0.0652307,0.181002,0.0343257
1413393221405760512,-0.247513,-0.368116,-0.189678,0.572917,-8.46596e-05,-0.819467,0.015519,-0.0236346,0.0301297,0.308127,-0.00120718,0.0130081,0.0437518,-0.0653838,0.182224,0.0349136
1413393221455760384,-0.24916,-0.365986,-0.173139,0.572491,0.00107914,-0.819805,0.0131346,-0.0417002,0.046141,0.288122,-0.00123565,0.0129907,0.0438052,-0.0648082,0.183482,0.0348584
1413393221505760512,-0.251628,-0.363554,-0.152559,0.571732,0.00170416,-0.820351,0.0119886,-0.0583546,0.0357132,0.225168,-0.00122766,0.0130611,0.0438761,-0.0662247,0.184766,0.0348634
1413393221555760384,-0.254667,-0.361728,-0.146891,0.57113,0.00398749,-0.820801,0.00899581,-0.071678,0.0381331,0.175452,-0.00120887,0.0131073,0.0439527,-0.0660055,0.186343,0.0336338
1413393221605760512,-0.259549,-0.358981,-0.140714,0.571086,0.00544328,-0.82084,0.0073655,-0.100358,0.0318457,0.156906,-0.00118843,0.0130891,0.0440278,-0.0641797,0.187431,0.0348083
1413393221655760384,-0.264538,-0.358451,-0.134674,0.571671,0.00642701,-0.820433,0.00645034,-0.119104,0.00774201,0.160846,-0.00119066,0.0130605,0.0440334,-0.0624003,0.187937,0.0333953
1413393221705760512,-0.270449,-0.35843,-0.125745,0.574779,0.00700159,-0.818259,0.00576999,-0.128805,0.00914645,0.172059,-0.00121178,0.0131017,0.0441463,-0.0631161,0.187569,0.0309641
1413393221755760384,-0.276754,-0.358834,-0.116503,0.578281,0.00686243,-0.815784,0.00641845,-0.137027,-0.00244846,0.164841,-0.00116368,0.0133154,0.0445426,-0.0681811,0.192822,0.0261843
1413393221805760512,-0.283541,-0.359567,-0.106899,0.581451,0.00775836,-0.813515,0.00693516,-0.137466,-0.0233272,0.169236,-0.00108154,0.0131539,0.0444159,-0.0626007,0.193781,0.0266081
1413393221855760384,-0.290382,-0.360557,-0.0977954,0.583366,0.00835959,-0.812138,0.00683775,-0.134679,-0.00885425,0.16005,-0.00106977,0.0129997,0.0443359,-0.057297,0.192822,0.0288714
1413393221905760512,-0.297146,-0.361656,-0.0893783,0.584466,0.00829554,-0.81134,0.00764098,-0.133077,-0.0314044,0.147947,-0.00104664,0.0130007,0.0444478,-0.0572843,0.193816,0.0278662
1413393221955760384,-0.303654,-0.363159,-0.0817706,0.585935,0.0088997,-0.810257,0.00926195,-0.127944,-0.0343207,0.124822,-0.000900206,0.013222,0.0448359,-0.0637007,0.20128,0.0228628
1413393222005760512,-0.309672,-0.364888,-0.0756668,0.58596,0.00866904,-0.810237,0.00965625,-0.121755,-0.019774,0.072637,-0.000807746,0.0133031,0.0449072,-0.0635628,0.203965,0.0222664
1413393222055760384,-0.315479,-0.366687,-0.0727095,0.586594,0.00870923,-0.809766,0.0105208,-0.114706,-0.0371639,0.0132987,-0.000801429,0.0133458,0.0449589,-0.0627986,0.202004,0.0244975
1413393222105760512,-0.32111,-0.368844,-0.0727937,0.587229,0.00893633,-0.809283,0.0119754,-0.117874,-0.0471711,-0.0484803,-0.000823451,0.0133695,0.045017,-0.0614301,0.199723,0.025639
1413393222155760384,-0.327006,-0.370952,-0.0764685,0.587239,0.00976409,-0.809265,0.0120901,-0.113774,-0.0330563,-0.104317,-0.000805024,0.0134571,0.0451058,-0.0621471,0.19798,0.0264211
1413393222205760512,-0.332403,-0.37302,-0.0827564,0.587137,0.0101746,-0.80933,0.012327,-0.104368,-0.0407463,-0.164466,-0.000820506,0.0135248,0.0452283,-0.061949,0.1956,0.0267804
1413393222255760384,-0.337283,-0.375156,-0.0921875,0.585969,0.0105919,-0.810155,0.0132883,-0.0952127,-0.0492882,-0.21644,-0.000847421,0.0136127,0.0453302,-0.0634322,0.194507,0.0258952
1413393222305760512,-0.341855,-0.377142,-0.103702,0.583676,0.011595,-0.811804,0.0128001,-0.0927634,-0.0321671,-0.247715,-0.000824862,0.0136658,0.0455325,-0.0639621,0.194734,0.0245277
1413393222355760384,-0.346392,-0.379044,-0.11668,0.579467,0.0114654,-0.81481,0.0131014,-0.0953435,-0.0431594,-0.246421,-0.000831135,0.0136667,0.0455753,-0.0642639,0.194602,0.0218053
1413393222405760512,-0.351206,-0.381108,-0.127732,0.575452,0.0118568,-0.817634,0.0138148,-0.102063,-0.0504091,-0.228169,-0.000875977,0.0137128,0.0456646,-0.0650444,0.195846,0.0192503
1413393222455760384,-0.356587,-0.383103,-0.135944,0.57212,0.0133893,-0.819969,0.0122989,-0.111043,-0.0417103,-0.203275,-0.000840436,0.0137396,0.0457556,-0.0638311,0.197878,0.0154015
1413393222505760512,-0.362639,-0.385603,-0.145076,0.569329,0.0131765,-0.821896,0.0133521,-0.132563,-0.0584934,-0.174953,-0.000845317,0.0137405,0.0458504,-0.063719,0.199107,0.0139982
1413393222555760384,-0.369493,-0.388554,-0.152294,0.568128,0.0122522,-0.822689,0.0162539,-0.137349,-0.0678485,-0.115404,-0.000829824,0.0138499,0.0459546,-0.0657221,0.201891,0.0122381
1413393222605760512,-0.377081,-0.391787,-0.156625,0.567093,0.0122632,-0.823392,0.0168007,-0.165163,-0.0613668,-0.0863163,-0.000781085,0.0139258,0.0461138,-0.0644866,0.202202,0.0111878
1413393222655760384,-0.385712,-0.395265,-0.159891,0.565649,0.0123566,-0.824369,0.0174705,-0.192364,-0.0687952,-0.0277073,-0.000750886,0.0139124,0.046133,-0.0618503,0.200381,0.0096275
1413393222705760512,-0.396087,-0.398813,-0.154699,0.565952,0.0134519,-0.824159,0.016731,-0.213267,-0.0714254,0.0197722,-0.000762836,0.0139393,0.0462031,-0.0609735,0.197434,0.0108584
1413393222755760384,-0.407301,-0.402538,-0.148728,0.564524,0.013359,-0.825117,0.0178178,-0.236127,-0.064733,0.0525841,-0.000818607,0.0139147,0.0462573,-0.0607662,0.191515,0.0131124
1413393222805760512,-0.419567,-0.406011,-0.141273,0.562861,0.0135789,-0.826238,0.018275,-0.259838,-0.0629702,0.102794,-0.000849154,0.0139257,0.0463412,-0.0612027,0.187741,0.0147805
1413393222855760384,-0.432636,-0.409117,-0.134809,0.560833,0.0135454,-0.827598,0.0191126,-0.275159,-0.0570025,0.132768,-0.000878817,0.0139661,0.0464115,-0.0609715,0.186488,0.0137626
1413393222905760512,-0.446914,-0.412229,-0.130323,0.559809,0.0138308,-0.828249,0.0206661,-0.299605,-0.0504925,0.174393,-0.000876571,0.0139944,0.0464876,-0.060631,0.18365,0.0141978
1413393222955760384,-0.462643,-0.414645,-0.120195,0.558191,0.0147829,-0.829302,0.0215047,-0.331504,-0.0475413,0.221158,-0.000885155,0.0140069,0.0465779,-0.0602408,0.184781,0.0123544
1413393223005760512,-0.479559,-0.417519,-0.116512,0.559358,0.0157943,-0.828494,0.0216285,-0.347713,-0.0462138,0.232616,-0.000878706,0.0139646,0.0466288,-0.0576173,0.183985,0.013757
1413393223055760384,-0.497814,-0.420094,-0.103857,0.561324,0.017549,-0.827116,0.022091,-0.374772,-0.0513842,0.252731,-0.000863855,0.0140003,0.0467443,-0.0585079,0.183886,0.014128
1413393223105760512,-0.517111,-0.422862,-0.0929478,0.563198,0.0185801,-0.825798,0.0228346,-0.398083,-0.0470311,0.251894,-0.000924734,0.0139997,0.0468691,-0.0578177,0.181126,0.0150378
1413393223155760384,-0.537341,-0.42514,-0.0804579,0.564782,0.0190635,-0.824725,0.0220749,-0.422802,-0.0528715,0.252324,-0.00090658,0.013995,0.0469732,-0.058237,0.183595,0.0104682
1413393223205760512,-0.558734,-0.428098,-0.0648557,0.566787,0.0219026,-0.823313,0.0207417,-0.440438,-0.0657325,0.254066,-0.000941972,0.0139495,0.0471363,-0.0564502,0.179448,0.00774816
1413393223255760384,-0.581159,-0.431247,-0.0530522,0.567928,0.0227609,-0.822524,0.0198511,-0.459974,-0.0657062,0.209954,-0.000985035,0.0138861,0.0471003,-0.0572347,0.180811,0.00571065
1413393223305760512,-0.604522,-0.435218,-0.0442009,0.569652,0.0232007,-0.821318,0.0198811,-0.478633,-0.0872017,0.169373,-0.00103982,0.0138521,0.0471824,-0.0574706,0.180092,0.00420084
1413393223355760384,-0.628839,-0.439781,-0.0384806,0.570732,0.0235555,-0.82057,0.0193704,-0.496572,-0.0960766,0.0830561,-0.00108492,0.0138187,0.0473427,-0.0578662,0.179967,0.00324523
1413393223405760512,-0.653894,-0.444686,-0.0369,0.572473,0.0237857,-0.819352,0.0192903,-0.504576,-0.102753,-0.0183117,-0.00108493,0.0138188,0.0473429,-0.0583676,0.179597,0.00277927
1413393223455760384,-0.679504,-0.44979,-0.0407188,0.574661,0.0243544,-0.817826,0.018229,-0.516147,-0.108126,-0.13329,-0.00148201,0.0137516,0.0473268,-0.0588321,0.179548,0.0023469
1413393223505760512,-0.705416,-0.455305,-0.0497624,0.577428,0.0242727,-0.81589,0.0176893,-0.52148,-0.112229,-0.229615,-0.00148201,0.0137517,0.047327,-0.0591768,0.179114,0.00196247
1413393223555760384,-0.731442,-0.461152,-0.0631274,0.580243,0.0235603,-0.813911,0.0176864,-0.526704,-0.119928,-0.305004,-0.00160834,0.0136824,0.047341,-0.0593977,0.178816,0.00159848
1413393223605760512,-0.757533,-0.466956,-0.0796254,0.582919,0.0233078,-0.812026,0.0166306,-0.512846,-0.117208,-0.372938,-0.00165038,0.0136647,0.0473498,-0.0595652,0.17912,0.000766812
1413393223655760384,-0.782837,-0.472556,-0.0978379,0.585179,0.0221683,-0.810452,0.0155806,-0.508077,-0.122206,-0.402786,-0.00167218,0.0138217,0.0474444,-0.0622775,0.182251,-9.36746e-05
1413393223705760512,-0.808066,-0.478046,-0.11205,0.586161,0.0207246,-0.809797,0.0147005,-0.498514,-0.128294,-0.376271,-0.00152697,0.0141878,0.0477931,-0.0670214,0.188852,-0.000367067
1413393223755760384,-0.832688,-0.484567,-0.128979,0.587041,0.0194527,-0.80921,0.013566,-0.496452,-0.138114,-0.3016,-0.00149127,0.0143548,0.0479135,-0.0689752,0.191018,-0.00101694
1413393223805760512,-0.856503,-0.491703,-0.143574,0.588172,0.0172996,-0.808446,0.0130542,-0.484635,-0.156591,-0.243642,-0.00151671,0.014502,0.0478367,-0.0691526,0.192534,-0.00346627
1413393223855760384,-0.880273,-0.499647,-0.153129,0.587009,0.0156165,-0.809339,0.0121294,-0.462037,-0.164813,-0.148202,-0.00150129,0.0145151,0.0479487,-0.0686068,0.192594,-0.00465387
1413393223905760512,-0.903552,-0.508075,-0.159629,0.587342,0.014999,-0.809148,0.00924097,-0.48259,-0.169366,-0.0826258,-0.00157076,0.0144265,0.0479017,-0.0676739,0.190871,-0.00537123
1413393223955760384,-0.927291,-0.517295,-0.163637,0.587044,0.0134095,-0.809405,0.00791414,-0.482115,-0.189328,-0.0248013,-0.00168411,0.0142399,0.0477589,-0.066473,0.188575,-0.00616928
1413393224005760512,-0.951281,-0.527173,-0.165596,0.587939,0.011836,-0.808788,0.00705976,-0.483825,-0.201929,0.00821275,-0.0017598,0.0141097,0.04781,-0.0657006,0.186447,-0.00647123
1413393224055760384,-0.975566,-0.537688,-0.166617,0.587311,0.00957459,-0.809275,0.00695831,-0.488489,-0.215609,0.00080803,-0.00177341,0.0141127,0.0480792,-0.0662232,0.184723,-0.00552336
1413393224105760512,-1.00008,-0.548442,-0.163155,0.588388,0.00701851,-0.808519,0.00697179,-0.484385,-0.241759,-0.0429305,-0.00177307,0.014367,0.0483397,-0.064968,0.186624,-0.00433652
1413393224155760384,-1.02435,-0.560782,-0.162873,0.588961,0.00583779,-0.808118,0.00614211,-0.481155,-0.255135,-0.0690419,-0.00173872,0.0142613,0.0485876,-0.0650209,0.181872,-0.00245445
1413393224205760512,-1.04835,-0.573841,-0.163778,0.588714,0.00746224,-0.808297,0.00399639,-0.469136,-0.269828,-0.133771,-0.00173607,0.0142876,0.0487685,-0.0647995,0.178917,-0.000745671
1413393224255760384,-1.07193,-0.587632,-0.172233,0.589842,0.00645842,-0.807489,0.0025566,-0.464615,-0.280616,-0.163113,-0.00170556,0.0142481,0.0488893,-0.0644586,0.174897,0.000763582
1413393224305760512,-1.0948,-0.601912,-0.181416,0.591324,0.0049183,-0.806416,0.00234628,-0.452045,-0.292205,-0.223861,-0.0017235,0.0143408,0.0489112,-0.0645615,0.173132,0.00181814
1413393224355760384,-1.11764,-0.616863,-0.195999,0.591437,0.00610698,-0.806328,0.000710461,-0.452965,-0.296412,-0.271248,-0.00174793,0.0144064,0.048949,-0.0633339,0.171027,0.00265142
1413393224405760512,-1.13993,-0.631896,-0.212953,0.591064,0.00470652,-0.806611,-0.00108155,-0.441252,-0.292183,-0.31382,-0.00176788,0.0145089,0.0490283,-0.0630584,0.168813,0.00345798
1413393224455760384,-1.16159,-0.646834,-0.230187,0.591969,0.000994099,-0.805958,-0.00184035,-0.420364,-0.298254,-0.362064,-0.00174612,0.0145243,0.0491005,-0.0608596,0.165921,0.00359167
1413393224505760512,-1.18193,-0.661403,-0.249691,0.592223,-0.00400455,-0.805759,-0.00299005,-0.394619,-0.285735,-0.41199,-0.00173347,0.0145624,0.0491807,-0.0591215,0.163758,0.00351529
1413393224555760384,-1.20118,-0.675454,-0.270661,0.59202,-0.0114309,-0.805837,-0.00300738,-0.380156,-0.281492,-0.444931,-0.00170619,0.0146348,0.0492988,-0.0578454,0.16231,0.00332995
1413393224605760512,-1.21971,-0.689419,-0.29266,0.592942,-0.0189826,-0.80501,-0.00441256,-0.367176,-0.271594,-0.461791,-0.00168695,0.0146303,0.0493261,-0.0557662,0.160109,0.00224204
1413393224655760384,-1.23804,-0.702715,-0.314752,0.592871,-0.0274656,-0.804805,-0.00616203,-0.360362,-0.252569,-0.41903,-0.00166465,0.0146394,0.0493769,-0.0533381,0.158273,0.0016243
1413393224705760512,-1.25537,-0.715478,-0.335655,0.591013,-0.0357561,-0.805825,-0.00843377,-0.342499,-0.25539,-0.414591,-0.00165093,0.0146527,0.0494893,-0.0509213,0.156587,0.00197261
1413393224755760384,-1.27259,-0.727551,-0.356203,0.589138,-0.0443358,-0.806747,-0.0105561,-0.347601,-0.236272,-0.39939,-0.00162728,0.014662,0.0495333,-0.0484185,0.155219,0.00248597
1413393224805760512,-1.28933,-0.738947,-0.375853,0.587326,-0.0523394,-0.80752,-0.0148631,-0.31789,-0.210255,-0.382568,-0.00158276,0.0146853,0.0496284,-0.0460705,0.153991,0.00382266
1413393224855760384,-1.30507,-0.749507,-0.394176,0.585329,-0.0606192,-0.808322,-0.0182108,-0.312425,-0.215445,-0.334258,-0.00156974,0.0146871,0.0496482,-0.0429986,0.152723,0.00507363
1413393224905760512,-1.32104,-0.759551,-0.408562,0.584356,-0.0663842,-0.808481,-0.0219089,-0.317145,-0.197239,-0.277295,-0.00150922,0.014668,0.0497145,-0.0399575,0.151186,0.00729147
1413393224955760384,-1.33585,-0.768932,-0.42144,0.582643,-0.0723367,-0.80912,-0.0248847,-0.287292,-0.169137,-0.215662,-0.00146848,0.0146514,0.0498014,-0.0376913,0.149921,0.009214
1413393225005760512,-1.35013,-0.777641,-0.431484,0.581087,-0.075695,-0.809798,-0.0289155,-0.285917,-0.175994,-0.144007,-0.00147127,0.0146307,0.0498096,-0.0357416,0.148921,0.0108455
1413393225055760384,-1.36442,-0.785727,-0.43787,0.579494,-0.0771881,-0.810648,-0.0328543,-0.28122,-0.155861,-0.128629,-0.00143463,0.0146067,0.049885,-0.0341115,0.147765,0.0125787
1413393225105760512,-1.37878,-0.79275,-0.441792,0.578538,-0.0793923,-0.810982,-0.0360502,-0.269063,-0.12441,-0.0572866,-0.00142924,0.0145607,0.049924,-0.0328832,0.146885,0.0134937
1413393225155760384,-1.39192,-0.799284,-0.444718,0.578394,-0.0806263,-0.810845,-0.0386046,-0.257044,-0.135666,-0.0729245,-0.0013973,0.0145492,0.049969,-0.0320949,0.146139,0.0141784
1413393225205760512,-1.40429,-0.805547,-0.447954,0.577823,-0.0823544,-0.811079,-0.0385936,-0.247289,-0.117878,-0.061053,-0.00137487,0.0145096,0.0500085,-0.0317611,0.145631,0.0142354
1413393225255760384,-1.41604,-0.811143,-0.451255,0.577093,-0.0829772,-0.811444,-0.0404664,-0.229956,-0.104085,-0.0535618,-0.00134308,0.0145104,0.0500712,-0.0324727,0.145326,0.0141472
1413393225305760512,-1.42755,-0.816029,-0.452183,0.576208,-0.0849067,-0.811829,-0.041347,-0.228558,-0.108171,-0.0806554,-0.00133696,0.0144911,0.0500782,-0.0308104,0.146349,0.0133319
1413393225355760384,-1.43888,-0.820588,-0.454892,0.576236,-0.0875482,-0.811399,-0.0438084,-0.215205,-0.0826066,-0.0602622,-0.0012945,0.0145081,0.0501596,-0.0326511,0.145437,0.0132624
1413393225405760512,-1.44991,-0.824596,-0.457668,0.575534,-0.093623,-0.811166,-0.0447863,-0.22194,-0.0670994,-0.0398882,-0.00125345,0.0144261,0.0502674,-0.0328397,0.1448,0.0122858
1413393225455760384,-1.46153,-0.82761,-0.459156,0.574569,-0.100562,-0.810915,-0.0466511,-0.234753,-0.0544708,-0.0271305,-0.00122949,0.0143625,0.050289,-0.032945,0.144393,0.0109447
1413393225505760512,-1.47291,-0.829294,-0.45868,0.574596,-0.109692,-0.809576,-0.0489315,-0.223369,-0.0140826,-0.0173372,-0.0012095,0.0142965,0.0503644,-0.0346166,0.144535,0.00935821
1413393225555760384,-1.48414,-0.8294,-0.458735,0.572926,-0.119528,-0.809138,-0.0525797,-0.219769,0.01185,-0.00964464,-0.00122044,0.0142491,0.0503973,-0.0355685,0.145416,0.0075426
1413393225605760512,-1.49573,-0.827732,-0.458789,0.572063,-0.130702,-0.807699,-0.0573012,-0.242137,0.0466278,0.0202701,-0.00121577,0.0141471,0.0503845,-0.0357961,0.146218,0.00629096
1413393225655760384,-1.50743,-0.824257,-0.456115,0.571655,-0.14136,-0.805683,-0.0640603,-0.232276,0.0857945,0.0309658,-0.00121842,0.0140733,0.0504041,-0.0367987,0.147455,0.00531441
1413393225705760512,-1.51871,-0.819473,-0.454015,0.571364,-0.154045,-0.802961,-0.0711912,-0.227321,0.11317,0.0557725,-0.00123692,0.0139911,0.0503877,-0.0377616,0.147878,0.00498281
1413393225755760384,-1.52994,-0.81343,-0.451001,0.570763,-0.164097,-0.800403,-0.0815922,-0.231576,0.124659,0.0624176,-0.00125636,0.0138887,0.050433,-0.0388436,0.148463,0.00462427
1413393225805760512,-1.54084,-0.806198,-0.447452,0.570143,-0.17299,-0.797649,-0.093631,-0.210354,0.15962,0.0892245,-0.00125581,0.0137942,0.0504281,-0.0398843,0.147635,0.00472313
1413393225855760384,-1.55068,-0.798248,-0.444282,0.566269,-0.182649,-0.796358,-0.108597,-0.19469,0.164061,0.0313738,-0.00128717,0.0137803,0.0504118,-0.0418122,0.151013,0.00347771
1413393225905760512,-1.56029,-0.790136,-0.445681,0.565594,-0.18834,-0.794037,-0.118899,-0.192685,0.162409,-0.0606473,-0.00130541,0.0137719,0.0504507,-0.0431228,0.155451,0.00218783
1413393225955760384,-1.5701,-0.78188,-0.451514,0.561758,-0.196952,-0.792244,-0.134116,-0.202657,0.167536,-0.165879,-0.00135034,0.0137707,0.0504471,-0.0450926,0.157575,0.000770693
1413393226005760512,-1.58013,-0.773708,-0.461442,0.560719,-0.204095,-0.788832,-0.147255,-0.202984,0.160179,-0.238651,-0.00138925,0.0137503,0.0504678,-0.0456102,0.159547,0.00115531
1413393226055760384,-1.59038,-0.766007,-0.473684,0.559918,-0.215258,-0.784475,-0.157339,-0.210651,0.149178,-0.25464,-0.0013634,0.0138232,0.0505774,-0.0467141,0.163995,0.00174669
1413393226105760512,-1.60055,-0.759422,-0.485629,0.558952,-0.226806,-0.780515,-0.164099,-0.216357,0.123378,-0.248599,-0.00125812,0.0138955,0.0506534,-0.0463489,0.171061,0.00311502
1413393226155760384,-1.61196,-0.75328,-0.498194,0.558745,-0.237754,-0.77612,-0.170044,-0.223952,0.121554,-0.212013,-0.00135008,0.0138491,0.0506766,-0.0480842,0.17082,0.00191212
1413393226205760512,-1.62318,-0.747656,-0.507751,0.557892,-0.248517,-0.772256,-0.174975,-0.224196,0.100133,-0.148141,-0.00137778,0.0139135,0.0506746,-0.0499093,0.173726,0.00112971
1413393226255760384,-1.63445,-0.742454,-0.510951,0.556782,-0.258695,-0.769227,-0.177091,-0.244038,0.103355,-0.0773039,-0.00151,0.0141094,0.0507719,-0.0546085,0.17742,-0.000945716
1413393226305760512,-1.6428,-0.738911,-0.515764,0.555932,-0.265796,-0.766806,-0.179723,-0.228417,0.101521,-0.0598919,-0.00153004,0.0140737,0.0508046,-0.0549855,0.182045,-0.00319508
1413393226355760384,-1.65501,-0.732099,-0.515751,0.556436,-0.263587,-0.769154,-0.171185,-0.243004,0.0879998,-0.0170201,-0.00250868,0.01414,0.0511636,-0.0558159,0.195699,-0.00761718
1413393226405760512,-1.65284,-0.739233,-0.516766,0.551456,-0.279163,-0.765675,-0.178066,-0.238061,0.0893025,-0.0246537,-0.00175386,0.0141722,0.0509047,-0.0599421,0.203812,-0.0191522
1413393226455760384,-1.67235,-0.722757,-0.492007,0.552815,-0.263561,-0.77377,-0.161898,-0.249915,0.0820831,-0.0496762,-0.0036248,0.0141206,0.0517036,-0.0623735,0.227659,-0.031095
1413393226505760512,-1.6818,-0.7287,-0.54728,0.545339,-0.279178,-0.772325,-0.16787,-0.262597,0.0896137,-0.0989581,-0.00264696,0.0141468,0.0513769,-0.0504886,0.232875,-0.000492326
1413393226555760384,-1.69522,-0.729451,-0.469229,0.548105,-0.270984,-0.775181,-0.15888,-0.271102,0.0910129,-0.131789,-0.00373453,0.0139489,0.0518635,-0.0654413,0.246992,-0.0457764
1413393226605760512,-1.70254,-0.72333,-0.612175,0.540129,-0.286606,-0.773529,-0.166648,-0.265473,0.111162,-0.160948,-0.00260586,0.0141064,0.0514341,-0.0483658,0.231921,0.000263216
1413393226655760384,-1.71309,-0.717587,-0.646324,0.540168,-0.284781,-0.774502,-0.165125,-0.280965,0.125796,-0.141698,-0.00282042,0.0145094,0.051815,-0.0556384,0.240755,-0.0103105
1413393226705760512,-1.72745,-0.710961,-0.652009,0.540875,-0.281655,-0.774232,-0.169382,-0.299227,0.142517,-0.135223,-0.0028328,0.0148808,0.0520795,-0.0586729,0.250788,-0.0151727
1413393226755760384,-1.74229,-0.702958,-0.660797,0.542838,-0.277794,-0.773159,-0.17431,-0.303692,0.164458,-0.113819,-0.00306589,0.0148798,0.0521324,-0.0598003,0.25081,-0.0214764
1413393226805760512,-1.75755,-0.69496,-0.668519,0.543214,-0.274468,-0.772936,-0.179324,-0.331112,0.152144,-0.0971746,-0.00308974,0.0149093,0.05217,-0.0593875,0.250508,-0.0237818
1413393226855760384,-1.77456,-0.686926,-0.673918,0.54368,-0.271116,-0.773032,-0.182567,-0.340134,0.153063,-0.117558,-0.00307802,0.0149394,0.0522303,-0.0591479,0.250975,-0.0253616
1413393226905760512,-1.79317,-0.678796,-0.680937,0.543467,-0.265972,-0.774336,-0.185221,-0.351729,0.148599,-0.101632,-0.00294524,0.014914,0.0525739,-0.0559956,0.248555,-0.0217369
1413393226955760384,-1.81166,-0.671784,-0.685341,0.543359,-0.264349,-0.774573,-0.186864,-0.375164,0.133702,-0.0840533,-0.00306895,0.0148813,0.0525074,-0.0565794,0.246633,-0.0245047
1413393227005760512,-1.83067,-0.665391,-0.690067,0.543365,-0.262708,-0.774843,-0.188039,-0.386161,0.126413,-0.082718,-0.00305699,0.0149124,0.0525399,-0.0569591,0.24647,-0.0265886
1413393227055760384,-1.85022,-0.659156,-0.692806,0.544139,-0.262712,-0.774264,-0.188181,-0.40393,0.119145,-0.0758633,-0.00302758,0.0150068,0.0526188,-0.0584837,0.244314,-0.0278757
1413393227105760512,-1.8694,-0.653925,-0.696648,0.545589,-0.263433,-0.772997,-0.188178,-0.414553,0.104852,-0.0804817,-0.00256632,0.0151322,0.0528866,-0.0578695,0.244914,-0.0267196
1413393227155760384,-1.88819,-0.649237,-0.69264,0.54648,-0.269915,-0.769631,-0.190194,-0.423258,0.102832,-0.0692301,-0.00223989,0.0150731,0.0526986,-0.0624693,0.244532,-0.0364334
1413393227205760512,-1.90801,-0.645609,-0.697602,0.548416,-0.272293,-0.767697,-0.189046,-0.428272,0.0997672,-0.052736,-0.00214615,0.0150985,0.0526622,-0.066532,0.24642,-0.0450102
1413393227255760384,-1.92789,-0.641194,-0.69928,0.551145,-0.275093,-0.765472,-0.186052,-0.428175,0.100132,-0.0318748,-0.0021448,0.0151454,0.0526848,-0.0711053,0.245139,-0.0528812
1413393227305760512,-1.94808,-0.637745,-0.706331,0.551535,-0.276886,-0.764857,-0.184763,-0.426,0.0968811,-0.0451511,-0.00217915,0.0151628,0.0527154,-0.0741321,0.244238,-0.0582404
1413393227355760384,-1.97144,-0.633262,-0.714525,0.553389,-0.274594,-0.765261,-0.180928,-0.423217,0.0907029,-0.0370745,-0.00225745,0.0153795,0.0530847,-0.0741645,0.245795,-0.0540146
1413393227405760512,-1.99323,-0.628147,-0.715769,0.55276,-0.278893,-0.763909,-0.181987,-0.417283,0.101768,-0.0327701,-0.0021952,0.0153823,0.052915,-0.0795905,0.244235,-0.063215
1413393227455760384,-2.01338,-0.624059,-0.719112,0.553083,-0.28017,-0.763545,-0.180562,-0.416177,0.107933,-0.0342453,-0.00227209,0.0154018,0.0529133,-0.0813061,0.242691,-0.0641662
1413393227505760512,-2.03496,-0.617705,-0.718232,0.553539,-0.280681,-0.763116,-0.180186,-0.414246,0.112851,-0.0388404,-0.00230357,0.0154519,0.0529834,-0.0838286,0.240254,-0.0678623
1413393227555760384,-2.05486,-0.611792,-0.71733,0.554765,-0.282369,-0.761542,-0.18044,-0.407668,0.129948,-0.0348719,-0.00238025,0.0152888,0.0529972,-0.082507,0.237067,-0.0703143
1413393227605760512,-2.07643,-0.605707,-0.728762,0.555651,-0.285299,-0.75975,-0.18066,-0.40068,0.139261,-0.0325513,-0.00243895,0.0152845,0.0530449,-0.0829191,0.238403,-0.0713144
1413393227655760384,-2.09574,-0.597704,-0.724624,0.555307,-0.288694,-0.758258,-0.182578,-0.390244,0.15709,-0.0251282,-0.00246919,0.0153618,0.0530796,-0.0838387,0.237988,-0.0694823
1413393227705760512,-2.11497,-0.588243,-0.724159,0.554433,-0.292779,-0.756833,-0.184632,-0.37595,0.174064,-0.0285657,-0.002588,0.0153512,0.0531325,-0.0842844,0.239764,-0.0698016
1413393227755760384,-2.13819,-0.58552,-0.739303,0.557182,-0.286673,-0.759478,-0.174814,-0.364152,0.176789,-0.0366421,-0.00397176,0.0152824,0.0534844,-0.0753299,0.293662,-0.0537234
1413393227805760512,-2.15111,-0.570141,-0.694193,0.555167,-0.293864,-0.756278,-0.18297,-0.349136,0.185634,-0.0506837,-0.00373484,0.015379,0.0535055,-0.0834888,0.269718,-0.0695203
1413393227855760384,-2.16852,-0.560283,-0.694588,0.554439,-0.301998,-0.752678,-0.186736,-0.333738,0.207051,-0.0508979,-0.00371304,0.0152823,0.0535846,-0.0826012,0.269389,-0.0708359
1413393227905760512,-2.18499,-0.549802,-0.69682,0.552923,-0.310185,-0.749226,-0.19163,-0.328686,0.215866,-0.0369322,-0.00370337,0.0153229,0.0536087,-0.0833331,0.269689,-0.0719227
1413393227955760384,-2.20079,-0.538709,-0.698862,0.552214,-0.318535,-0.744754,-0.197328,-0.306662,0.227914,-0.0378066,-0.00369727,0.0154148,0.0536464,-0.0851374,0.270305,-0.0726039
1413393228005760512,-2.2155,-0.526861,-0.701469,0.550375,-0.328232,-0.740299,-0.203243,-0.281205,0.248423,-0.0517462,-0.0037075,0.0154269,0.0536706,-0.0862641,0.270807,-0.07343
1413393228055760384,-2.22939,-0.514392,-0.703903,0.547974,-0.33769,-0.735634,-0.211031,-0.277959,0.251559,-0.0563964,-0.00371817,0.0154848,0.0536797,-0.0881134,0.271436,-0.0738702
1413393228105760512,-2.24276,-0.501544,-0.706386,0.545416,-0.347298,-0.731061,-0.217843,-0.262497,0.263312,-0.0294927,-0.00369777,0.0155397,0.0536978,-0.0892106,0.271988,-0.0744679
1413393228155760384,-2.25533,-0.488054,-0.708556,0.541395,-0.356607,-0.727132,-0.225838,-0.242398,0.271551,-0.0490364,-0.00365573,0.0156108,0.0537763,-0.0890421,0.272393,-0.0755648
1413393228205760512,-2.2674,-0.47412,-0.710685,0.53727,-0.365983,-0.723481,-0.232319,-0.241552,0.275757,-0.0340439,-0.0034151,0.0156917,0.0537515,-0.0882338,0.273693,-0.0761811
1413393228255760384,-2.2791,-0.459925,-0.712495,0.533146,-0.373129,-0.720457,-0.239733,-0.231665,0.283243,-0.0237461,-0.00327982,0.015802,0.053853,-0.0892449,0.274773,-0.0760912
1413393228305760512,-2.29063,-0.445483,-0.713725,0.529542,-0.379719,-0.717378,-0.24651,-0.227986,0.288944,-0.0164186,-0.00322775,0.0158341,0.053896,-0.0891344,0.274986,-0.0763504
1413393228355760384,-2.30207,-0.430756,-0.7144,0.526288,-0.385316,-0.7145,-0.253067,-0.22962,0.296615,-0.00357864,-0.00318252,0.015805,0.0539497,-0.0883887,0.274188,-0.0765911
1413393228405760512,-2.31323,-0.415531,-0.714548,0.522872,-0.391261,-0.71133,-0.259864,-0.215762,0.306473,0.00439619,-0.00305402,0.0158644,0.0540185,-0.088297,0.274769,-0.0766976
1413393228455760384,-2.3241,-0.400038,-0.714196,0.520173,-0.398258,-0.707318,-0.265541,-0.213816,0.312081,0.0142418,-0.00295944,0.0158882,0.0540577,-0.0876394,0.27499,-0.0769367
1413393228505760512,-2.33501,-0.384461,-0.713142,0.518911,-0.40394,-0.702508,-0.272115,-0.223989,0.306751,0.0156416,-0.0028602,0.0159412,0.0541037,-0.0872553,0.275567,-0.0771826
1413393228555760384,-2.34564,-0.368972,-0.712842,0.517219,-0.410645,-0.697764,-0.277456,-0.205077,0.312309,0.0108929,-0.00278624,0.0159625,0.0541036,-0.0862532,0.27753,-0.0786876
1413393228605760512,-2.35612,-0.353494,-0.711949,0.513968,-0.417531,-0.694157,-0.282225,-0.208398,0.310094,0.0152725,-0.00273935,0.0159965,0.0541516,-0.085779,0.278195,-0.0797792
1413393228655760384,-2.36674,-0.338237,-0.710996,0.511864,-0.423737,-0.690725,-0.285205,-0.216906,0.305646,0.0213308,-0.00272491,0.0160992,0.0541433,-0.0865131,0.279475,-0.0812093
1413393228705760512,-2.37739,-0.322835,-0.709565,0.508844,-0.42781,-0.688949,-0.288802,-0.206697,0.312982,0.0150627,-0.00268285,0.016027,0.0542033,-0.0835527,0.277818,-0.0820714
1413393228755760384,-2.38822,-0.307413,-0.708951,0.506478,-0.432411,-0.687033,-0.290667,-0.219047,0.312138,0.0215982,-0.00268608,0.0159718,0.0542749,-0.0817163,0.275979,-0.0834325
1413393228805760512,-2.39971,-0.291639,-0.708914,0.503762,-0.436804,-0.686459,-0.290173,-0.230132,0.32707,0.0054599,-0.00275457,0.0158719,0.0543523,-0.0796285,0.270172,-0.0839016
1413393228855760384,-2.41085,-0.274082,-0.707441,0.50083,-0.441593,-0.68627,-0.288445,-0.222355,0.339143,-0.00560196,-0.00236871,0.016041,0.0543313,-0.0773374,0.274848,-0.0771414
1413393228905760512,-2.42235,-0.256803,-0.706874,-0.497115,0.444944,0.6877,0.286306,-0.223096,0.354383,-0.00348231,-0.00231759,0.0160524,0.0544004,-0.0762803,0.271134,-0.0752031
1413393228955760384,-2.43415,-0.23906,-0.704014,-0.495871,0.446754,0.687634,0.285802,-0.228917,0.369965,-0.016509,-0.0024728,0.0160038,0.0544447,-0.0776648,0.266112,-0.0796277
1413393229005760512,-2.44589,-0.219995,-0.705065,-0.493929,0.445932,0.688483,0.288391,-0.221385,0.402343,-0.0102708,-0.00251131,0.0160013,0.0545218,-0.0786148,0.261021,-0.0803368
1413393229055760384,-2.45788,-0.199638,-0.706889,-0.491565,0.442524,0.690188,0.293559,-0.239525,0.426618,-0.0332756,-0.00262359,0.015972,0.054586,-0.0787468,0.255345,-0.0824423
1413393229105760512,-2.46978,-0.178466,-0.714054,-0.491104,0.439526,0.69039,0.298322,-0.245175,0.436536,-0.056601,-0.00262361,0.0159906,0.054613,-0.0790508,0.255757,-0.0837527
1413393229155760384,-2.48228,-0.156715,-0.718689,-0.489985,0.436412,0.69118,0.302868,-0.248339,0.43707,-0.0465799,-0.00259119,0.0160043,0.0546683,-0.0782055,0.254097,-0.0826876
1413393229205760512,-2.4953,-0.135181,-0.722363,-0.489254,0.433058,0.692157,0.306611,-0.273769,0.435021,-0.0742611,-0.00264287,0.0160016,0.0547463,-0.077801,0.253711,-0.0844441
1413393229255760384,-2.50938,-0.113426,-0.726276,-0.488891,0.430277,0.692901,0.309412,-0.289269,0.430409,-0.0882175,-0.00262777,0.0159928,0.054797,-0.0761981,0.253587,-0.0838219
1413393229305760512,-2.52402,-0.0918981,-0.730758,-0.489356,0.428131,0.692851,0.311755,-0.29698,0.425584,-0.0987845,-0.00260676,0.0160311,0.0548323,-0.0749834,0.254505,-0.0823443
1413393229355760384,-2.53998,-0.0708558,-0.734354,-0.490641,0.426359,0.692476,0.312997,-0.331707,0.421388,-0.11072,-0.00263221,0.0160285,0.0548965,-0.0737472,0.252852,-0.0817799
1413393229405760512,-2.5569,-0.0500483,-0.742571,-0.492758,0.425628,0.691581,0.312644,-0.348657,0.414838,-0.124501,-0.00263497,0.0159495,0.054972,-0.070647,0.249498,-0.0810795
1413393229455760384,-2.57472,-0.0296257,-0.749131,-0.496621,0.426727,0.689243,0.310187,-0.355253,0.40502,-0.120412,-0.00262624,0.0159401,0.0550137,-0.0693009,0.248801,-0.0806474
1413393229505760512,-2.59292,-0.00954974,-0.754615,0.500548,-0.428253,-0.687266,-0.306133,-0.37315,0.393079,-0.120647,-0.00259944,0.0159601,0.0550474,-0.0676935,0.249379,-0.079782
1413393229555760384,-2.61155,0.00990794,-0.76037,0.502764,-0.431026,-0.685808,-0.301848,-0.372792,0.390819,-0.105224,-0.00257111,0.0159623,0.0550959,-0.0666919,0.249472,-0.0798012
1413393229605760512,-2.63113,0.0293168,-0.765022,0.504371,-0.434085,-0.684832,-0.29696,-0.355065,0.395611,-0.0933615,-0.0025202,0.015956,0.0551389,-0.0652686,0.249324,-0.0798581
1413393229655760384,-2.64924,0.0489715,-0.76962,0.504188,-0.436829,-0.685384,-0.291929,-0.358943,0.389581,-0.0884227,-0.00248734,0.0159636,0.0551725,-0.0627607,0.24909,-0.0781571
1413393229705760512,-2.66674,0.0687564,-0.774491,0.502701,-0.438547,-0.686773,-0.288637,-0.34144,0.4017,-0.0740283,-0.00248086,0.0159323,0.0552357,-0.0591585,0.246527,-0.0761492
1413393229755760384,-2.68382,0.0889107,-0.778915,0.50088,-0.439827,-0.688478,-0.285779,-0.338524,0.406079,-0.0538172,-0.00248715,0.0158592,0.0552885,-0.0552606,0.243749,-0.0744762
1413393229805760512,-2.7007,0.109742,-0.778992,-0.497876,0.441594,0.690755,0.282793,-0.3319,0.422821,-0.0366024,-0.00249377,0.0158254,0.0553306,-0.0523423,0.242852,-0.073739
1413393229855760384,-2.71269,0.131127,-0.779777,-0.494759,0.441778,0.694228,0.279452,-0.322656,0.438977,-0.0151964,-0.00257486,0.0158454,0.0553873,-0.0503416,0.245766,-0.073033
1413393229905760512,-2.72723,0.153793,-0.78199,-0.491962,0.442307,0.696924,0.27683,-0.320181,0.45075,0.00189626,-0.00262456,0.0158569,0.0554324,-0.0467715,0.24623,-0.0673055
1413393229955760384,-2.74205,0.177433,-0.784447,-0.490197,0.44161,0.698898,0.276098,-0.325055,0.48061,0.014178,-0.00262961,0.0158761,0.0554713,-0.0442421,0.248952,-0.0634571
1413393230005760512,-2.75741,0.202304,-0.783529,-0.488395,0.43937,0.700756,0.278146,-0.320285,0.507884,0.0612539,-0.00262643,0.015904,0.055527,-0.0424262,0.25015,-0.0607579
1413393230055760384,-2.77362,0.228639,-0.77999,-0.487954,0.434442,0.702027,0.283407,-0.34162,0.527272,0.0615765,-0.00263398,0.015869,0.0555717,-0.0388257,0.247125,-0.0566033
1413393230105760512,-2.79022,0.25539,-0.777567,-0.487923,0.429819,0.702889,0.288331,-0.347156,0.541246,0.0492993,-0.00268318,0.0158545,0.0556275,-0.0388107,0.246891,-0.0583998
1413393230155760384,-2.80765,0.282816,-0.774854,-0.488442,0.426403,0.703113,0.291955,-0.364643,0.548696,0.0442907,-0.00267717,0.015838,0.0556776,-0.0379297,0.247166,-0.0575483
1413393230205760512,-2.82596,0.310298,-0.773432,-0.488383,0.423181,0.7039,0.294831,-0.388583,0.543886,0.0237077,-0.0026827,0.0158415,0.0557104,-0.0381527,0.247444,-0.0572288
1413393230255760384,-2.8458,0.337529,-0.77171,-0.490048,0.420841,0.703324,0.296785,-0.405598,0.54616,0.00327992,-0.0027223,0.0158138,0.0557513,-0.0381912,0.245603,-0.0585539
1413393230305760512,-2.86659,0.36462,-0.76957,-0.492483,0.419104,0.702371,0.297468,-0.4239,0.541759,-0.00403144,-0.0027444,0.0157892,0.0558047,-0.0381092,0.244917,-0.060423
1413393230355760384,-2.88766,0.391461,-0.770319,-0.494245,0.419895,0.701733,0.294924,-0.434974,0.531132,-0.0408874,-0.00278874,0.0158099,0.0558512,-0.0381123,0.244676,-0.0605741
1413393230405760512,-2.90881,0.41815,-0.77381,-0.496981,0.42026,0.700648,0.292378,-0.448504,0.532799,-0.0468316,-0.00287452,0.0158194,0.0559153,-0.0377884,0.245203,-0.0601593
1413393230455760384,-2.9079,0.448397,-0.77246,0.501321,-0.413526,-0.70554,-0.282642,-0.457439,0.535627,-0.0457755,-0.00380172,0.0159807,0.0561962,-0.0284213,0.25454,-0.0366757
1413393230505760512,-2.93087,0.47429,-0.78773,0.50313,-0.416365,-0.703897,-0.279338,-0.461528,0.535064,-0.0262921,-0.00395983,0.015977,0.0563137,-0.0277562,0.262053,-0.036306
1413393230555760384,-2.95484,0.500749,-0.810597,0.502663,-0.42181,-0.701851,-0.277148,-0.452126,0.537588,-0.0487101,-0.00404701,0.0160608,0.0563428,-0.01917,0.266252,-0.0140069
1413393230605760512,-2.99723,0.526435,-0.783319,-0.499997,0.437681,0.689798,0.287434,-0.439648,0.569375,-0.0361611,-0.00296571,0.0158003,0.0561598,-0.0446813,0.260316,-0.0765604
1413393230655760384,-3.02882,0.55101,-0.846763,-0.497625,0.44839,0.683292,0.290564,-0.435272,0.578876,-0.0133778,-0.00267921,0.0157809,0.0561276,-0.0469578,0.257293,-0.0814941
1413393230705760512,-3.05513,0.579061,-0.858737,-0.495547,0.455756,0.678495,0.293879,-0.422464,0.607264,0.039345,-0.00267965,0.0157778,0.0562153,-0.0500508,0.257948,-0.0884738
1413393230755760384,-3.07161,0.609543,-0.852053,-0.493457,0.462771,0.674388,0.295878,-0.399732,0.616404,0.0505815,-0.00283646,0.0158081,0.0563083,-0.046456,0.256558,-0.0782327
1413393230805760512,-3.09133,0.640138,-0.847719,-0.49075,0.471233,0.668625,0.300075,-0.390107,0.630972,0.0656945,-0.00281627,0.0158096,0.0563222,-0.0469455,0.256192,-0.0794319
1413393230855760384,-3.11045,0.671882,-0.844942,-0.486422,0.479565,0.66311,0.306097,-0.361817,0.658317,0.0766196,-0.00281167,0.0158211,0.0564112,-0.0471098,0.255158,-0.0795658
1413393230905760512,-3.1282,0.704885,-0.840751,-0.481389,0.487397,0.657641,0.313396,-0.350285,0.675154,0.105993,-0.0028147,0.0158081,0.0564527,-0.0471238,0.254352,-0.0791758
1413393230955760384,-3.14518,0.738755,-0.835461,-0.474889,0.493559,0.653381,0.322449,-0.334013,0.68892,0.119792,-0.00284377,0.0158208,0.0564914,-0.0474308,0.25373,-0.078948
1413393231005760512,-3.16145,0.773451,-0.83164,-0.467826,0.498387,0.649843,0.332345,-0.320354,0.701266,0.13222,-0.00285774,0.0158212,0.0564799,-0.0481484,0.253846,-0.0792543
1413393231055760384,-3.17756,0.809545,-0.818431,-0.460497,0.50194,0.647446,0.341778,-0.325658,0.717804,0.12115,-0.00271425,0.0159731,0.0565302,-0.0476357,0.257534,-0.0738051
1413393231105760512,-3.19443,0.84543,-0.811495,-0.454811,0.504419,0.644974,0.35031,-0.346925,0.714851,0.11945,-0.00272736,0.0159482,0.0565866,-0.0465343,0.255515,-0.0714771
1413393231155760384,-3.21186,0.881296,-0.805149,-0.450102,0.506674,0.642683,0.357279,-0.358921,0.716555,0.132835,-0.00273595,0.015945,0.0565892,-0.0468446,0.255872,-0.0709045
1413393231205760512,-3.23077,0.916639,-0.801305,-0.446695,0.509749,0.64021,0.361596,-0.37735,0.720764,0.132438,-0.0028749,0.0159038,0.056592,-0.0484377,0.253136,-0.0741134
1413393231255760384,-3.25141,0.952172,-0.790717,-0.443633,0.511679,0.638327,0.365941,-0.413255,0.713552,0.126812,-0.00305535,0.015868,0.0565916,-0.0508936,0.249066,-0.0775831
1413393231305760512,-3.31003,0.989778,-0.769737,-0.435037,0.525248,0.624863,0.380005,-0.40941,0.724184,0.0819354,-0.0018224,0.0158728,0.0563967,-0.0694326,0.181868,-0.11515
1413393231355760384,-3.31808,1.0155,-0.731107,-0.440222,0.522032,0.626152,0.376326,-0.423015,0.714175,0.03314,-0.00246544,0.0159006,0.0565862,-0.0762379,0.188995,-0.132669
1413393231405760512,-3.34023,1.05146,-0.729287,-0.44258,0.525235,0.622347,0.375414,-0.439481,0.718681,-0.00335207,-0.00245045,0.0158992,0.0565853,-0.0770402,0.1885,-0.133422
1413393231455760384,-3.36202,1.08738,-0.731144,-0.447342,0.527656,0.617341,0.37464,-0.432202,0.721656,-0.035186,-0.00250703,0.0159134,0.0565664,-0.0773868,0.189163,-0.133463
1413393231505760512,-3.38372,1.12327,-0.734649,-0.45414,0.528925,0.611235,0.374682,-0.436258,0.711507,-0.079024,-0.0025385,0.0159259,0.056575,-0.0776996,0.19018,-0.132855
1413393231555760384,-3.40537,1.15904,-0.738746,-0.462534,0.528112,0.604682,0.376192,-0.43474,0.703734,-0.127149,-0.0025768,0.0159794,0.056662,-0.07728,0.191749,-0.13099
1413393231605760512,-3.42646,1.19518,-0.736843,-0.47,0.527499,0.598574,0.377563,-0.403195,0.684202,-0.158115,-0.0021475,0.0160843,0.0568489,-0.0735229,0.19857,-0.121334
1413393231655760384,-3.44636,1.22916,-0.743231,-0.474881,0.527624,0.593699,0.378975,-0.392404,0.654913,-0.174441,-0.00197231,0.0162299,0.0569846,-0.0735756,0.201918,-0.117476
1413393231705760512,-3.46495,1.26162,-0.750564,-0.476129,0.528405,0.591014,0.380515,-0.359992,0.62763,-0.175373,-0.00186031,0.0164392,0.0571257,-0.0743797,0.204965,-0.114379
1413393231755760384,-3.48217,1.29239,-0.758591,-0.474482,0.531527,0.589002,0.381343,-0.322929,0.600399,-0.16348,-0.0018439,0.0163877,0.0572578,-0.0735689,0.205213,-0.112747
1413393231805760512,-3.49838,1.32143,-0.7659,-0.471853,0.535906,0.58738,0.380978,-0.313118,0.561362,-0.156462,-0.00182633,0.0163747,0.0572364,-0.0756555,0.203799,-0.112794
1413393231855760384,-3.51351,1.34881,-0.772293,-0.46956,0.542085,0.584935,0.378825,-0.275225,0.53455,-0.145314,-0.00182015,0.0164154,0.0572074,-0.0794617,0.200989,-0.113039
1413393231905760512,-3.52694,1.37512,-0.776114,-0.465306,0.550306,0.582302,0.376268,-0.235479,0.519267,-0.120796,-0.00171176,0.0165882,0.0569502,-0.0874243,0.202085,-0.11891
1413393231955760384,-3.53786,1.40081,-0.782174,-0.46178,0.558375,0.578641,0.374369,-0.209437,0.51617,-0.106045,-0.00169286,0.0168291,0.0569445,-0.0924882,0.205993,-0.121175
1413393232005760512,-3.54742,1.42612,-0.787129,-0.457721,0.566191,0.574496,0.373998,-0.159548,0.500865,-0.0984893,-0.00178889,0.0168579,0.0572132,-0.0940898,0.200995,-0.118841
1413393232055760384,-3.55446,1.45175,-0.790101,-0.451615,0.572892,0.571231,0.37621,-0.11677,0.509253,-0.0613504,-0.00186995,0.0170264,0.0575017,-0.0920762,0.198517,-0.112737
1413393232105760512,-3.56017,1.47728,-0.791291,-0.445332,0.579018,0.567506,0.379941,-0.0819642,0.494789,-0.0384318,-0.00191829,0.0170919,0.0578139,-0.0887849,0.190991,-0.105169
1413393232155760384,-3.56328,1.50207,-0.793316,-0.439151,0.585059,0.562944,0.384638,-0.0395911,0.489331,-0.0430571,-0.00193153,0.0172323,0.0578165,-0.0903891,0.19126,-0.104289
1413393232205760512,-3.56453,1.52678,-0.794976,-0.432773,0.589252,0.558051,0.392515,-0.00992782,0.49556,-0.0364991,-0.00193216,0.0172326,0.0578164,-0.0924119,0.191987,-0.10387
1413393232255760384,-3.56442,1.55157,-0.797788,-0.426957,0.594234,0.552401,0.399307,0.0127347,0.494943,-0.0699447,-0.00193194,0.0172326,0.0578166,-0.0945012,0.192727,-0.103468
1413393232305760512,-3.56294,1.57638,-0.801989,-0.421427,0.599367,0.546294,0.405859,0.0443079,0.494073,-0.101758,-0.00193203,0.0172327,0.0578167,-0.0965694,0.193494,-0.102961
1413393232355760384,-3.56031,1.60125,-0.807703,-0.416765,0.605952,0.538979,0.410647,0.0607555,0.496647,-0.136204,-0.00193201,0.0172328,0.0578169,-0.0986157,0.194266,-0.102436
1413393232405760512,-3.55652,1.6261,-0.815,-0.410995,0.612693,0.532956,0.414305,0.0872495,0.497632,-0.151131,-0.00193201,0.0172329,0.057817,-0.100626,0.195055,-0.101892
1413393232455760384,-3.55228,1.65111,-0.822896,-0.405179,0.619046,0.526752,0.418503,0.110447,0.494766,-0.189759,-0.00196371,0.0172389,0.0580426,-0.100761,0.189652,-0.0987595
1413393232505760512,-3.5469,1.67624,-0.833282,-0.400042,0.625541,0.52042,0.421697,0.126637,0.503124,-0.222316,-0.00197001,0.0172276,0.0582554,-0.100405,0.185604,-0.0958874
1413393232555760384,-3.54061,1.70154,-0.845256,-0.395882,0.630725,0.514826,0.424756,0.143931,0.511611,-0.255944,-0.00202872,0.0171741,0.0581659,-0.099592,0.18115,-0.0956844
1413393232605760512,-3.53351,1.72712,-0.858558,-0.392346,0.634508,0.510592,0.427504,0.155449,0.509707,-0.284288,-0.00205978,0.0171287,0.0582036,-0.0995824,0.178628,-0.0950282
1413393232655760384,-3.52544,1.75254,-0.872278,-0.39007,0.638118,0.506034,0.429629,0.185992,0.511947,-0.260919,-0.0021329,0.0170753,0.0581612,-0.099319,0.176039,-0.0950272
1413393232705760512,-3.51603,1.77823,-0.884758,-0.388328,0.640609,0.502324,0.431848,0.193014,0.517126,-0.250288,-0.0021027,0.0170972,0.0583517,-0.0996045,0.176069,-0.0936787
1413393232755760384,-3.5056,1.80392,-0.8966,-0.385627,0.641957,0.500598,0.434264,0.216386,0.513603,-0.224819,-0.0020814,0.017174,0.0584551,-0.100517,0.176975,-0.0930849
1413393232805760512,-3.49411,1.8297,-0.907794,-0.383313,0.64348,0.499104,0.435775,0.246112,0.524932,-0.218,-0.00209093,0.0172256,0.058456,-0.101226,0.177476,-0.0925765
1413393232855760384,-3.48168,1.85629,-0.918014,-0.382316,0.644239,0.497507,0.437354,0.252127,0.535368,-0.206594,-0.00209863,0.0172811,0.0584575,-0.101852,0.177907,-0.0920964
1413393232905760512,-3.4685,1.88276,-0.927967,-0.379944,0.645085,0.497821,0.437816,0.275269,0.531604,-0.19374,-0.00212267,0.0173185,0.0584437,-0.102398,0.177854,-0.0915246
1413393232955760384,-3.45444,1.90948,-0.935745,-0.375974,0.64409,0.49968,0.440581,0.295869,0.53219,-0.147011,-0.00208533,0.017245,0.0585124,-0.100982,0.175651,-0.0899824
1413393233005760512,-3.43997,1.9367,-0.941409,-0.372555,0.643462,0.501651,0.442161,0.301636,0.54683,-0.113072,-0.00202904,0.0170143,0.0586042,-0.0974292,0.17076,-0.0876446
1413393233055760384,-3.42495,1.96442,-0.944495,-0.369213,0.642285,0.504115,0.44387,0.309848,0.557069,-0.0723363,-0.0019927,0.0166973,0.0586525,-0.0905098,0.166683,-0.0858586
1413393233105760512,-3.40933,1.99231,-0.946542,-0.366279,0.642024,0.506169,0.444341,0.325988,0.553776,-0.0383082,-0.00206067,0.0164982,0.0585139,-0.087524,0.164561,-0.0857672
1413393233155760384,-3.39287,2.02046,-0.947751,-0.365046,0.641211,0.507391,0.445134,0.323784,0.568501,0.00456252,-0.00211027,0.0165745,0.0584802,-0.0884034,0.168029,-0.0872014
1413393233205760512,-3.37622,2.04938,-0.946808,-0.364022,0.639859,0.508248,0.446936,0.327526,0.587479,0.05678,-0.00209732,0.0167125,0.058549,-0.0904518,0.170869,-0.0869671
1413393233255760384,-3.35902,2.07875,-0.943032,-0.363658,0.638364,0.506558,0.45127,0.345118,0.583757,0.097337,-0.00209941,0.0168215,0.0585973,-0.0918797,0.173799,-0.0870936
1413393233305760512,-3.34183,2.10838,-0.936978,-0.362981,0.637072,0.504486,0.455937,0.336986,0.597459,0.142865,-0.00206798,0.0169058,0.0586824,-0.0926418,0.174778,-0.0857297
1413393233355760384,-3.32501,2.13826,-0.92833,-0.36294,0.635937,0.500569,0.461833,0.341789,0.597983,0.197848,-0.00207008,0.0169219,0.0587091,-0.0927529,0.172757,-0.0839996
1413393233405760512,-3.30839,2.16788,-0.917677,-0.362968,0.635917,0.49502,0.467782,0.339517,0.58335,0.208541,-0.00204809,0.0170008,0.0587886,-0.0938751,0.168545,-0.0817041
1413393233455760384,-3.2923,2.19705,-0.905394,-0.364306,0.638267,0.486834,0.472112,0.32924,0.579432,0.258459,-0.0020241,0.0169778,0.0588079,-0.0932492,0.163491,-0.0805849
1413393233505760512,-3.27624,2.22542,-0.889581,-0.361164,0.640416,0.481324,0.477237,0.323644,0.549574,0.302659,-0.00202806,0.0169572,0.0587845,-0.0928075,0.160909,-0.0807707
1413393233555760384,-3.26013,2.2525,-0.873744,-0.358364,0.644895,0.474505,0.480137,0.323518,0.528472,0.308988,-0.00201864,0.0169723,0.0588458,-0.092238,0.160636,-0.0803186
1413393233605760512,-3.2441,2.279,-0.856943,-0.351504,0.649737,0.469581,0.483509,0.319416,0.530214,0.357042,-0.0020105,0.0169491,0.0588696,-0.091291,0.159426,-0.0798952
1413393233655760384,-3.22849,2.30466,-0.839231,-0.343793,0.656382,0.464375,0.485103,0.313854,0.518953,0.391236,-0.0019914,0.0169714,0.0589693,-0.0895254,0.157565,-0.0775476
1413393233705760512,-3.21278,2.32964,-0.816998,-0.335713,0.664025,0.458542,0.485908,0.302847,0.507514,0.425091,-0.002,0.0170009,0.0589535,-0.0891232,0.164277,-0.079325
1413393233755760384,-3.19755,2.35511,-0.793737,-0.32789,0.668526,0.452239,0.490959,0.292138,0.50844,0.48627,-0.00199929,0.0170279,0.0590337,-0.0883485,0.166389,-0.0773683
1413393233805760512,-3.18312,2.37996,-0.769699,-0.323273,0.672377,0.445092,0.495275,0.271722,0.489632,0.507497,-0.00200478,0.0170669,0.0590578,-0.0871712,0.170132,-0.0764603
1413393233855760384,-3.16939,2.40444,-0.745376,-0.320787,0.671627,0.436592,0.505372,0.2445,0.49425,0.495962,-0.00201238,0.0170693,0.0590555,-0.0860761,0.176554,-0.0773131
1413393233905760512,-3.15701,2.42853,-0.721175,-0.321134,0.674143,0.428052,0.509093,0.228188,0.481749,0.494307,-0.00203546,0.0170552,0.0590627,-0.085512,0.18109,-0.0778764
1413393233955760384,-3.14568,2.45183,-0.696561,-0.319298,0.676489,0.419825,0.513963,0.224179,0.456008,0.488047,-0.0020753,0.0170556,0.0590664,-0.0851674,0.182434,-0.0787617
1413393234005760512,-3.13499,2.47425,-0.672922,-0.31791,0.681657,0.4115,0.514729,0.197322,0.44511,0.494869,-0.00209033,0.0170677,0.0590678,-0.0841604,0.184572,-0.0782999
1413393234055760384,-3.12508,2.49586,-0.648729,-0.316082,0.687743,0.403095,0.514409,0.18654,0.421099,0.485495,-0.00209504,0.0170792,0.0591035,-0.0824256,0.186119,-0.076355
1413393234105760512,-3.11539,2.51613,-0.626659,-0.312188,0.694534,0.395484,0.51357,0.18595,0.391937,0.473167,-0.00211013,0.0170888,0.0591418,-0.0804685,0.188146,-0.0746545
1413393234155760384,-3.10604,2.53534,-0.60622,-0.307805,0.701152,0.388693,0.512406,0.17797,0.373754,0.431882,-0.00212239,0.0171143,0.0591516,-0.078954,0.189104,-0.0731694
1413393234205760512,-3.09763,2.55416,-0.580341,-0.305916,0.706133,0.381589,0.512036,0.186826,0.350839,0.406652,-0.00213434,0.0171427,0.0591891,-0.0772775,0.186541,-0.0713168
1413393234255760384,-3.08774,2.57104,-0.561867,-0.308555,0.708556,0.37096,0.514909,0.206394,0.32405,0.370515,-0.00214912,0.0171589,0.0592212,-0.0749687,0.186131,-0.0693674
1413393234305760512,-3.08378,2.59081,-0.46782,-0.316392,0.709477,0.357819,0.518175,0.217399,0.295609,0.339837,-0.00219976,0.0171405,0.0592687,-0.0757166,0.211145,-0.0776468
1413393234355760384,-3.06386,2.58135,-0.474509,-0.327992,0.710396,0.350931,0.514399,0.225608,0.254594,0.307887,-0.00282184,0.0171053,0.0591496,-0.0539455,0.254953,-0.0230909
1413393234405760512,-3.07159,2.57702,-0.315541,-0.341141,0.708096,0.344855,0.513126,0.226421,0.209391,0.242379,-0.00348389,0.0169977,0.0593277,-0.051024,0.30017,-0.0255836
1413393234455760384,-3.06071,2.58508,-0.30876,-0.34428,0.710235,0.333192,0.515773,0.232803,0.157346,0.20735,-0.0034748,0.0170198,0.0593583,-0.0470909,0.289083,-0.019838
1413393234505760512,-3.05039,2.59195,-0.292044,-0.343393,0.712194,0.32408,0.519454,0.253302,0.0809217,0.169041,-0.00346156,0.0170332,0.0594072,-0.0454229,0.282064,-0.019536
1413393234555760384,-3.03787,2.59468,-0.277725,-0.338275,0.714265,0.317261,0.524158,0.286027,-0.00907167,0.213912,-0.00346461,0.0170969,0.0594645,-0.0436096,0.276712,-0.0177904
1413393234605760512,-3.02287,2.59245,-0.26795,-0.32593,0.71549,0.315308,0.531437,0.31662,-0.0731035,0.216581,-0.00345873,0.0170977,0.0594774,-0.0411359,0.276213,-0.0159669
1413393234655760384,-3.00586,2.5871,-0.254631,-0.307294,0.714544,0.317233,0.54255,0.329335,-0.153537,0.287606,-0.0034577,0.0170986,0.0595151,-0.0388905,0.278328,-0.0158268
1413393234705760512,-2.98998,2.57719,-0.236474,-0.285197,0.714693,0.321082,0.552072,0.311803,-0.236836,0.435454,-0.0034645,0.0171127,0.0595531,-0.0374005,0.278655,-0.0170812
1413393234755760384,-2.97553,2.56442,-0.213645,-0.26541,0.717256,0.322968,0.557488,0.280928,-0.280244,0.457837,-0.00346699,0.0171501,0.0595763,-0.0351761,0.275437,-0.0116426
1413393234805760512,-2.96223,2.54997,-0.190289,-0.245677,0.721584,0.324522,0.56004,0.248607,-0.297216,0.453221,-0.00346251,0.0171572,0.0595982,-0.0339796,0.275013,-0.0108517
1413393234855760384,-2.95116,2.53514,-0.16865,-0.231126,0.728136,0.322262,0.559058,0.221167,-0.304702,0.380201,-0.00347333,0.0172104,0.059642,-0.0333892,0.268854,-0.00646487
1413393234905760512,-2.94165,2.52055,-0.150163,-0.222662,0.736157,0.315798,0.555667,0.197009,-0.301637,0.290823,-0.00345788,0.0172621,0.0596948,-0.0321937,0.260763,-0.00330961
1413393234955760384,-2.93353,2.50646,-0.135706,-0.216841,0.743537,0.307377,0.552858,0.171448,-0.293751,0.185164,-0.00344869,0.0173305,0.0597386,-0.031306,0.250126,0.00380507
1413393235005760512,-2.92544,2.49195,-0.129024,-0.215143,0.751094,0.295481,0.549785,0.154055,-0.288113,0.082036,-0.00344695,0.01734,0.059752,-0.0312567,0.24921,0.00448964
1413393235055760384,-2.91838,2.47775,-0.12721,-0.214504,0.757524,0.282526,0.54802,0.149121,-0.283586,-0.0196677,-0.00344286,0.0173942,0.0597825,-0.032292,0.243954,0.00697164
1413393235105760512,-2.91121,2.46346,-0.13062,-0.212898,0.763266,0.269528,0.547224,0.147966,-0.286192,-0.113212,-0.00343348,0.0174243,0.0598127,-0.0319138,0.241609,0.00859024
1413393235155760384,-2.90378,2.449,-0.138523,-0.208987,0.768716,0.258014,0.546652,0.155182,-0.287353,-0.188842,-0.00342837,0.0174337,0.0598362,-0.0311564,0.242531,0.0100971
1413393235205760512,-2.89601,2.4346,-0.148664,-0.200111,0.772012,0.250136,0.548986,0.157095,-0.291218,-0.208968,-0.0034133,0.0174509,0.0598831,-0.0317239,0.241915,0.00996334
1413393235255760384,-2.88801,2.41986,-0.15959,-0.188036,0.775853,0.244395,0.550423,0.157134,-0.293855,-0.22723,-0.003395,0.0174845,0.0599122,-0.0311807,0.242405,0.0114127
1413393235305760512,-2.88026,2.40541,-0.170325,-0.174096,0.778969,0.240456,0.552339,0.155166,-0.285089,-0.206084,-0.00337914,0.017485,0.0599652,-0.0329924,0.24295,0.00946212
1413393235355760384,-2.87269,2.39167,-0.180152,-0.162497,0.782726,0.236847,0.552122,0.14891,-0.26486,-0.198206,-0.00336129,0.0175127,0.0599938,-0.0328367,0.242369,0.0106562
1413393235405760512,-2.86557,2.37927,-0.189139,-0.151491,0.78647,0.234935,0.550745,0.142441,-0.235949,-0.177578,-0.00335106,0.0175325,0.0600444,-0.0325675,0.240503,0.00963163
1413393235455760384,-2.8587,2.36851,-0.195629,-0.143096,0.789584,0.232283,0.54966,0.151014,-0.201489,-0.159061,-0.00333934,0.017547,0.0600708,-0.0325592,0.237583,0.00929877
1413393235505760512,-2.85171,2.3594,-0.201665,-0.134719,0.792724,0.23102,0.547785,0.159622,-0.163683,-0.126112,-0.00328374,0.0175738,0.0601149,-0.0321407,0.234776,0.010286
1413393235555760384,-2.85081,2.35163,-0.203245,-0.119704,0.794107,0.222741,0.552677,0.16808,-0.116169,-0.082705,-0.00271868,0.0175316,0.0600185,-0.0341641,0.232371,0.00529188
1413393235605760512,-2.85911,2.3605,-0.183306,-0.100943,0.794233,0.215489,0.559079,0.158742,-0.071063,-0.0984621,-0.00204095,0.0175713,0.0598889,-0.0342046,0.220153,0.00733911
1413393235655760384,-2.85156,2.35858,-0.189458,-0.0923015,0.792239,0.214518,0.563756,0.154118,-0.0147523,-0.0778535,-0.00201445,0.0175787,0.0598992,-0.0349233,0.219882,0.0059991
1413393235705760512,-2.84566,2.35909,-0.190599,-0.0861432,0.790067,0.211236,0.568993,0.132844,0.0514746,-0.0801666,-0.00189153,0.0175663,0.0599054,-0.036432,0.220679,0.00307048
1413393235755760384,-2.84151,2.36581,-0.196465,-0.0842278,0.79008,0.205077,0.571509,0.111841,0.110527,-0.0713986,-0.00176667,0.0175534,0.0598567,-0.0356323,0.229019,0.00721757
1413393235805760512,-2.81468,2.36989,-0.217303,-0.103568,0.785282,0.223327,0.568094,0.0749194,0.173388,-0.0672518,-0.00337415,0.0177789,0.0601156,-0.0209182,0.224676,0.0544006
1413393235855760384,-2.8079,2.37211,-0.219482,-0.111442,0.788733,0.212057,0.566139,0.0561301,0.212452,-0.071115,-0.00325169,0.017899,0.0598551,0.00110144,0.236785,0.118617
1413393235905760512,-2.80595,2.38292,-0.223661,-0.122312,0.789671,0.200886,0.566661,0.0320374,0.233788,-0.075136,-0.00323336,0.0179207,0.0598879,-0.000689997,0.233946,0.119628
1413393235955760384,-2.80515,2.39471,-0.23101,-0.132248,0.79095,0.189486,0.566572,0.0188257,0.249922,-0.0635831,-0.00320333,0.0179346,0.0599017,-0.00220749,0.228553,0.122957
1413393236005760512,-2.80523,2.40716,-0.233113,-0.137858,0.791167,0.179789,0.568089,0.00738771,0.239906,-0.0380159,-0.00319519,0.0179735,0.05992,-0.00393669,0.222461,0.126173
1413393236055760384,-2.80568,2.41883,-0.2327,-0.142465,0.792121,0.168592,0.569056,0.011305,0.230363,-0.0349566,-0.00316082,0.0179877,0.0599435,-0.00505565,0.218675,0.125876
1413393236105760512,-2.80537,2.42957,-0.233491,-0.143492,0.793542,0.158442,0.569735,0.0357967,0.221256,0.0063417,-0.00313314,0.0179973,0.0599419,-0.00638772,0.217035,0.124636
1413393236155760384,-2.80481,2.44153,-0.228786,-0.141867,0.79528,0.148094,0.570502,0.0165861,0.167398,0.0152349,-0.00307686,0.017986,0.0599603,-0.00678173,0.218846,0.124098
1413393236205760512,-2.81547,2.45193,-0.222401,-0.12869,0.79871,0.135666,0.571923,0.0104426,0.134723,0.0477324,-0.00262887,0.0180792,0.0599458,-0.0114499,0.192301,0.116676
1413393236255760384,-2.81929,2.45821,-0.213534,-0.116321,0.801519,0.129435,0.572087,-0.0153552,0.117374,0.0854791,-0.00250273,0.0181023,0.0599934,-0.0141048,0.18545,0.11301
1413393236305760512,-2.81725,2.46193,-0.208685,-0.104368,0.803526,0.126809,0.572165,-0.000373677,0.0877608,0.0713142,-0.00262751,0.0180754,0.0600452,-0.0151799,0.194878,0.1132
1413393236355760384,-2.8177,2.46627,-0.205367,-0.0921401,0.805533,0.119643,0.572986,0.00181473,0.0896016,0.106896,-0.00258773,0.0180879,0.0600784,-0.0169562,0.194186,0.113811
1413393236405760512,-2.81789,2.47086,-0.201166,-0.0836491,0.808008,0.111274,0.57249,0.00316754,0.104928,0.107021,-0.00256468,0.0181034,0.0601177,-0.0184414,0.193987,0.115317
1413393236455760384,-2.81798,2.47589,-0.195239,-0.0766881,0.809835,0.101802,0.572646,0.000229252,0.0995268,0.0955578,-0.00255538,0.0181151,0.0601513,-0.0184163,0.191418,0.117131
1413393236505760512,-2.81769,2.48097,-0.190241,-0.0709961,0.813413,0.0913819,0.570061,0.00866809,0.097814,0.0970023,-0.00254202,0.0181222,0.0601761,-0.0194177,0.191714,0.118577
1413393236555760384,-2.817,2.48626,-0.18514,-0.0648202,0.817656,0.0815107,0.56621,0.0208981,0.105379,0.105515,-0.00255965,0.0181476,0.0602168,-0.0211133,0.191395,0.119756
1413393236605760512,-2.81572,2.49176,-0.179957,-0.0589111,0.823289,0.0715256,0.560008,0.0365012,0.113076,0.108608,-0.00257474,0.0181538,0.0602449,-0.0219592,0.190572,0.121657
1413393236655760384,-2.81344,2.49753,-0.175715,-0.0539386,0.828077,0.0615641,0.554607,0.0647708,0.119511,0.058512,-0.00257132,0.0181712,0.0602605,-0.0224633,0.189807,0.124045
1413393236705760512,-2.8099,2.50373,-0.173831,-0.0509126,0.830682,0.0524634,0.551927,0.0743621,0.126786,0.00455839,-0.00258702,0.0181732,0.0602859,-0.0231097,0.190422,0.125986
1413393236755760384,-2.80605,2.5103,-0.173307,-0.0502048,0.831795,0.0420499,0.551206,0.0989838,0.123855,-0.0409451,-0.00256766,0.018193,0.0603058,-0.0226243,0.190524,0.128845
1413393236805760512,-2.80168,2.51631,-0.177472,-0.050828,0.831351,0.0301479,0.552598,0.120765,0.119801,-0.0851383,-0.00250913,0.0181981,0.060305,-0.0230593,0.187395,0.130157
1413393236855760384,-2.80907,2.53184,-0.172244,-0.0411736,0.83026,0.0123164,0.555718,0.156965,0.10613,-0.0753572,-0.00181983,0.0183391,0.0602105,-0.023056,0.149855,0.136249
1413393236905760512,-2.80665,2.54529,-0.14738,-0.0389149,0.828024,0.00670544,0.559301,0.180413,0.0842758,-0.00610925,-0.00180169,0.0183529,0.0603174,-0.0306981,0.138316,0.119679
1413393236955760384,-2.79558,2.54684,-0.149746,-0.0360118,0.824975,0.00429045,0.564004,0.209988,0.0565605,0.0350941,-0.00185107,0.0183685,0.060358,-0.0324801,0.140922,0.118951
1413393237005760512,-2.78496,2.54959,-0.14451,-0.0308056,0.822058,0.0039049,0.568557,0.226336,0.0444934,0.124484,-0.00183641,0.0184113,0.060396,-0.0335829,0.140293,0.121769
1413393237055760384,-2.77412,2.55144,-0.136765,-0.0250471,0.819865,0.00515463,0.571985,0.224716,0.0199363,0.191911,-0.00181359,0.0184114,0.0604293,-0.0336896,0.140662,0.123875
1413393237105760512,-2.76262,2.5527,-0.126579,-0.017844,0.817853,0.00848724,0.575089,0.233017,0.01464,0.263944,-0.00182227,0.0184291,0.0604276,-0.0347456,0.138796,0.126092
1413393237155760384,-2.75059,2.55347,-0.114023,-0.00988773,0.815036,0.0134471,0.57917,0.23874,0.0241389,0.247437,-0.00182705,0.018401,0.0604513,-0.0339096,0.14063,0.127356
1413393237205760512,-2.73905,2.555,-0.102472,-0.00221879,0.813018,0.0190825,0.581922,0.23377,0.0390977,0.203635,-0.00180774,0.0184166,0.0604667,-0.0353527,0.138403,0.130803
1413393237255760384,-2.72731,2.55733,-0.0952385,0.00304631,0.811547,0.0230572,0.583824,0.239979,0.0473814,0.135078,-0.00180511,0.0184458,0.0605134,-0.0366374,0.136351,0.133249
1413393237305760512,-2.71564,2.56051,-0.0906952,0.00717126,0.811669,0.026569,0.583469,0.225124,0.0785047,0.0808044,-0.00179683,0.0184585,0.060551,-0.0369444,0.13608,0.134483
1413393237355760384,-2.70484,2.56524,-0.088606,0.00963707,0.811906,0.029756,0.58295,0.207994,0.113425,0.0104803,-0.00177524,0.0184615,0.0605739,-0.0372692,0.135762,0.136029
1413393237405760512,-2.69483,2.57147,-0.0901069,0.0103882,0.811206,0.0313289,0.583829,0.197412,0.135141,-0.0582632,-0.00178045,0.018492,0.0606221,-0.0383181,0.134907,0.136496
1413393237455760384,-2.68545,2.57958,-0.0938701,0.00788555,0.810858,0.0306577,0.584386,0.18774,0.177786,-0.0883732,-0.00175113,0.0184937,0.0606778,-0.0389297,0.133554,0.136483
1413393237505760512,-2.6763,2.58924,-0.0981485,0.00133122,0.81052,0.0280528,0.585037,0.184468,0.205487,-0.104886,-0.00174001,0.0185061,0.0606972,-0.0390144,0.132306,0.137816
1413393237555760384,-2.66753,2.60002,-0.102672,-0.00745148,0.810978,0.0238218,0.584544,0.171662,0.221467,-0.0961461,-0.0017283,0.0185175,0.0607153,-0.0384799,0.130778,0.137028
1413393237605760512,-2.65907,2.61138,-0.106457,-0.0165435,0.810838,0.0193734,0.584716,0.164798,0.226468,-0.0931368,-0.00171392,0.0185068,0.0607368,-0.0377265,0.12923,0.138891
1413393237655760384,-2.65103,2.62269,-0.11075,-0.0254972,0.812291,0.0148851,0.582505,0.158891,0.21872,-0.0803237,-0.00170437,0.0185116,0.060741,-0.0375497,0.128166,0.140134
1413393237705760512,-2.643,2.63341,-0.114606,-0.0327788,0.812936,0.0116079,0.581315,0.156813,0.203165,-0.0890709,-0.0017046,0.0185139,0.0607636,-0.0369523,0.127771,0.141477
1413393237755760384,-2.63518,2.64312,-0.118935,-0.0377465,0.81394,0.0100863,0.579634,0.150629,0.180363,-0.0772324,-0.00171146,0.0185147,0.0607891,-0.0373999,0.126095,0.14444
1413393237805760512,-2.62735,2.65147,-0.12263,-0.0408702,0.814874,0.00959589,0.578116,0.159101,0.154093,-0.0526301,-0.00172653,0.0185382,0.0608242,-0.0381502,0.125902,0.145643
1413393237855760384,-2.61939,2.65844,-0.125382,-0.0408662,0.81642,0.0111172,0.575903,0.166889,0.12941,-0.0602686,-0.00172584,0.0185456,0.0608271,-0.038644,0.126697,0.148124
1413393237905760512,-2.6108,2.66412,-0.12768,-0.0389941,0.818395,0.0138031,0.573166,0.166545,0.102701,-0.0361343,-0.00171835,0.018546,0.0608626,-0.0380635,0.128374,0.149576
1413393237955760384,-2.6021,2.66859,-0.130028,-0.0368392,0.819621,0.0159544,0.571498,0.165499,0.0750491,-0.0473091,-0.00171325,0.0185118,0.0608542,-0.0358641,0.131238,0.151298
1413393238005760512,-2.59337,2.6719,-0.133126,-0.0296678,0.822597,0.0215079,0.567443,0.171212,0.0599671,-0.0503653,-0.0017087,0.0185164,0.0608892,-0.0360926,0.132962,0.152712
1413393238055760384,-2.5838,2.67472,-0.135643,-0.0230541,0.824803,0.0269857,0.564305,0.192744,0.062591,-0.0323601,-0.00173565,0.0184703,0.0609031,-0.0350441,0.13467,0.154059
1413393238105760512,-2.57345,2.67744,-0.13788,-0.0183687,0.826996,0.0308654,0.56106,0.211609,0.060585,-0.0278966,-0.00176274,0.0184902,0.0609363,-0.0365623,0.138057,0.157127
1413393238155760384,-2.54618,2.67129,-0.144341,-0.0276979,0.828,0.0435488,0.558348,0.223195,0.0665342,-0.000649465,-0.0027177,0.0180833,0.0609478,-0.0227196,0.258012,0.189302
1413393238205760512,-2.53126,2.67403,-0.141785,-0.0283908,0.82924,0.0468606,0.556201,0.247599,0.0953316,0.010818,-0.00298186,0.0178997,0.0608716,-0.0136352,0.315997,0.213996
1413393238255760384,-2.50995,2.67352,-0.135712,-0.027069,0.829899,0.0473352,0.555242,0.245644,0.113271,0.0677969,-0.00304522,0.0177982,0.0608412,-0.00793737,0.348066,0.230155
1413393238305760512,-2.50809,2.68331,-0.0959481,-0.0153966,0.829777,0.0378074,0.5566,0.278405,0.125218,0.133942,-0.0023623,0.0179523,0.0609001,-0.0196879,0.294838,0.196582
1413393238355760384,-2.48879,2.69252,-0.102813,-0.0209056,0.831088,0.0416907,0.554182,0.306497,0.166836,0.166766,-0.00283282,0.0178297,0.0608569,-0.00311951,0.343637,0.230699
1413393238405760512,-2.47263,2.70173,-0.0976425,-0.0209407,0.830839,0.0401131,0.55467,0.346707,0.190968,0.233562,-0.00287193,0.0178293,0.060849,0.00206352,0.343564,0.23492
1413393238455760384,-2.4552,2.71248,-0.086474,-0.0241071,0.829868,0.0364345,0.556246,0.362721,0.2141,0.261269,-0.00289867,0.0178439,0.0608964,0.00571254,0.344752,0.236733
1413393238505760512,-2.43383,2.72158,-0.0742672,-0.0332748,0.82959,0.0320398,0.55646,0.374808,0.233352,0.230091,-0.00310376,0.0177544,0.0608553,0.0154852,0.372346,0.255754
1413393238555760384,-2.41321,2.73191,-0.0642069,-0.0424149,0.827692,0.0250949,0.559014,0.376205,0.242849,0.176237,-0.00320147,0.0177182,0.0608799,0.0175816,0.38495,0.259143
1413393238605760512,-2.39141,2.74256,-0.0554106,-0.0530018,0.826055,0.0181548,0.560799,0.393791,0.236477,0.117377,-0.00331501,0.0176678,0.0608766,0.0220854,0.405126,0.269414
1413393238655760384,-2.37096,2.7536,-0.0512438,-0.061028,0.824893,0.0107443,0.561883,0.40668,0.218685,0.0718566,-0.00332912,0.0177049,0.06091,0.0214461,0.407335,0.268955
1413393238705760512,-2.35061,2.76438,-0.0468682,-0.0670967,0.823915,0.00520982,0.562704,0.413253,0.197354,0.00446876,-0.00334038,0.0177195,0.0609224,0.0211584,0.406984,0.269449
1413393238755760384,-2.32978,2.77333,-0.0503352,-0.0715451,0.823109,0.00078008,0.563358,0.422064,0.160777,-0.0363521,-0.00334732,0.0177243,0.0609519,0.0211463,0.406881,0.270145
1413393238805760512,-2.30831,2.7803,-0.052377,-0.0726599,0.822261,-0.00107112,0.564452,0.431165,0.124536,-0.0502394,-0.00335058,0.0177475,0.0609732,0.0201833,0.406805,0.269081
1413393238855760384,-2.28636,2.78513,-0.0542701,-0.070503,0.822055,-0.00039384,0.565026,0.437417,0.0758405,-0.0412409,-0.00334796,0.0177644,0.060992,0.020593,0.407701,0.269808
1413393238905760512,-2.26413,2.78786,-0.0562766,-0.0655377,0.822011,0.00215888,0.565684,0.452299,0.0350946,-0.0284342,-0.00335304,0.0178002,0.0610304,0.0207397,0.407772,0.269304
1413393238955760384,-2.24146,2.78866,-0.0564323,-0.0572627,0.822203,0.00750892,0.566257,0.448273,-0.000990416,-0.0107575,-0.003341,0.0177989,0.0610563,0.0209901,0.409398,0.268413
1413393239005760512,-2.21891,2.78779,-0.0558038,-0.0478482,0.821909,0.0126764,0.567464,0.450311,-0.0270359,0.00803688,-0.00332223,0.0177781,0.0610964,0.0212737,0.41122,0.266915
1413393239055760384,-2.19666,2.78668,-0.0563006,-0.0397711,0.822121,0.018154,0.567632,0.454335,-0.0100146,0.00519595,-0.00332099,0.0177847,0.0611302,0.0207588,0.410868,0.266479
1413393239105760512,-2.17413,2.78576,-0.0561902,-0.0331166,0.82202,0.0222232,0.56806,0.45387,-0.0236257,-0.00672564,-0.0033097,0.0178061,0.0611446,0.021448,0.410372,0.266765
1413393239155760384,-2.15144,2.78523,-0.0561479,-0.0283256,0.821837,0.0249,0.568473,0.458783,-0.00481064,0.0150424,-0.00330846,0.017817,0.0611782,0.0226111,0.409916,0.265458
1413393239205760512,-2.12843,2.78564,-0.0558267,-0.0243905,0.822216,0.0279896,0.567964,0.464165,0.0222524,-0.00214052,-0.00332264,0.0178095,0.061189,0.0233248,0.40864,0.267216
1413393239255760384,-2.10524,2.78658,-0.0554534,-0.0224943,0.821879,0.0284692,0.568505,0.463352,0.0182064,0.00411585,-0.0033079,0.0178216,0.0612057,0.0242783,0.409973,0.265899
1413393239305760512,-2.08191,2.78832,-0.0550945,-0.0200182,0.822135,0.0293016,0.568185,0.46931,0.0487647,0.0127542,-0.00331025,0.0178298,0.0612212,0.025311,0.410177,0.265557
1413393239355760384,-2.05832,2.7913,-0.054473,-0.0190805,0.822796,0.0301207,0.567217,0.471338,0.072157,0.0234578,-0.00331131,0.0178558,0.0612327,0.0265732,0.411155,0.26451
1413393239405760512,-2.03456,2.79514,-0.0533145,-0.0184793,0.823065,0.0298702,0.56686,0.475993,0.0842854,0.0276257,-0.00330357,0.0178614,0.0612789,0.0278895,0.411349,0.26469
1413393239455760384,-2.0106,2.80026,-0.0515326,-0.0190077,0.823709,0.0291623,0.565944,0.475566,0.117033,0.0343858,-0.00330545,0.0178508,0.0612885,0.0293824,0.412117,0.264046
1413393239505760512,-1.98645,2.8064,-0.0485039,-0.0168711,0.823721,0.0309026,0.565901,0.483238,0.132063,0.0661945,-0.00330355,0.0178654,0.061322,0.0309038,0.413277,0.26365
1413393239555760384,-1.96232,2.81385,-0.0451946,-0.0189409,0.824154,0.0291185,0.5653,0.482479,0.15636,0.0676801,-0.00329345,0.0178644,0.0613362,0.0317669,0.413491,0.263768
1413393239605760512,-1.93817,2.82254,-0.0411784,-0.0230096,0.824684,0.026988,0.564481,0.485876,0.191628,0.0786711,-0.00330282,0.0178655,0.0613685,0.0326546,0.413273,0.263254
1413393239655760384,-1.91378,2.83233,-0.0362852,-0.0300644,0.824791,0.0221927,0.564202,0.493846,0.19551,0.0996124,-0.00329784,0.0178838,0.0613991,0.0327538,0.41226,0.263614
1413393239705760512,-1.8889,2.84224,-0.0317212,-0.0405002,0.824991,0.0147102,0.563501,0.501852,0.19213,0.0973536,-0.00329385,0.0178894,0.0614203,0.0330238,0.411987,0.264123
1413393239755760384,-1.86351,2.85177,-0.0268797,-0.0490352,0.824843,0.00912729,0.563158,0.512961,0.189209,0.0888284,-0.00328973,0.0178923,0.0614474,0.0339089,0.412731,0.264215
1413393239805760512,-1.83755,2.86036,-0.0222283,-0.0543895,0.824912,0.00545022,0.562613,0.526186,0.153248,0.0903632,-0.00328236,0.0178972,0.0614754,0.0351281,0.412955,0.264636
1413393239855760384,-1.81124,2.86764,-0.0184488,-0.0569919,0.825889,0.00335401,0.560935,0.530432,0.134864,0.0631721,-0.0032767,0.0179262,0.0614829,0.0344237,0.413302,0.264417
1413393239905760512,-1.78434,2.8738,-0.0148832,-0.0550085,0.82648,0.00490505,0.56025,0.54338,0.11099,0.0743727,-0.00328596,0.0179576,0.0615078,0.0345251,0.414125,0.264467
1413393239955760384,-1.75675,2.8787,-0.0116119,-0.0534764,0.826506,0.00593442,0.56035,0.559319,0.0859791,0.0799593,-0.00329003,0.017963,0.0615207,0.0351185,0.414211,0.264142
1413393240005760512,-1.72842,2.88243,-0.0079674,-0.0494928,0.825603,0.00870326,0.562009,0.571644,0.0668811,0.0740555,-0.00329425,0.0179838,0.0615417,0.0354002,0.415194,0.264099
1413393240055760384,-1.69968,2.88539,-0.00394124,-0.044635,0.824733,0.0124957,0.56362,0.574606,0.0510546,0.0834143,-0.00330041,0.0179951,0.0615638,0.0355619,0.416374,0.263445
1413393240105760512,-1.67077,2.88769,0.000586891,-0.0376716,0.823022,0.0175939,0.566486,0.577658,0.0366494,0.0943261,-0.00328399,0.0180005,0.0615995,0.0353383,0.417629,0.263853
1413393240155760384,-1.64189,2.88996,0.00467345,-0.0317485,0.82169,0.022417,0.568608,0.576555,0.0518131,0.0633408,-0.00328455,0.0179978,0.0616362,0.035266,0.418552,0.263821
1413393240205760512,-1.61341,2.8928,0.00720152,-0.0278368,0.820475,0.0260306,0.570411,0.561516,0.0645276,0.0218851,-0.00328301,0.0179925,0.0616528,0.0346814,0.419952,0.265037
1413393240255760384,-1.58531,2.89627,0.00707228,-0.0249346,0.820592,0.0287312,0.570248,0.55734,0.0782257,-0.0301104,-0.00328336,0.0180041,0.0616741,0.0342801,0.420742,0.266199
1413393240305760512,-1.55761,2.90072,0.00386365,-0.0259842,0.820606,0.0282485,0.570204,0.554647,0.102134,-0.0842087,-0.00328134,0.0179861,0.0616937,0.0343691,0.422298,0.267237
1413393240355760384,-1.52976,2.90603,-0.00163568,-0.0278564,0.820484,0.0273362,0.570336,0.555266,0.114735,-0.136231,-0.00327742,0.0179999,0.0617253,0.0343361,0.422968,0.268184
1413393240405760512,-1.50168,2.91209,-0.0096674,-0.0325185,0.820362,0.0239852,0.570416,0.567673,0.126434,-0.177362,-0.00327048,0.0180204,0.0617727,0.0346617,0.423425,0.269386
1413393240455760384,-1.4735,2.91838,-0.0197344,-0.0367079,0.819722,0.0212525,0.57119,0.561668,0.12613,-0.221328,-0.00326955,0.018039,0.0618004,0.0351919,0.424042,0.270821
1413393240505760512,-1.44598,2.92469,-0.0316407,-0.0427106,0.819523,0.0168613,0.571204,0.540875,0.123561,-0.235235,-0.00326072,0.0180378,0.0618175,0.0353624,0.424373,0.271338
1413393240555760384,-1.41928,2.93066,-0.0424266,-0.0470926,0.818924,0.0134404,0.571809,0.525058,0.11432,-0.199589,-0.00328296,0.018056,0.061832,0.0349762,0.424661,0.272255
1413393240605760512,-1.39336,2.93591,-0.0505477,-0.050597,0.818532,0.0104317,0.572134,0.501981,0.0967597,-0.152572,-0.00328357,0.0180649,0.0618587,0.0345724,0.425439,0.273032
1413393240655760384,-1.36763,2.9402,-0.0563932,-0.0515428,0.818469,0.00881776,0.572166,0.531569,0.0779653,-0.0923982,-0.00328625,0.0180677,0.061872,0.0338263,0.425952,0.27355
1413393240705760512,-1.34029,2.94349,-0.0578352,-0.050429,0.818731,0.00820344,0.5719,0.562951,0.0531372,0.0497274,-0.00332621,0.0180754,0.0618804,0.0322759,0.425115,0.273358
1413393240755760384,-1.31216,2.94583,-0.0538279,-0.0464122,0.818008,0.00937762,0.573254,0.558172,0.041008,0.108493,-0.00332699,0.0180877,0.0618858,0.0306569,0.423435,0.27252
1413393240805760512,-1.28431,2.94766,-0.0479515,-0.042195,0.816629,0.0106624,0.575519,0.559512,0.0285241,0.134186,-0.00332946,0.0180977,0.0619032,0.028788,0.422298,0.271588
1413393240855760384,-1.25679,2.94923,-0.0420854,-0.0368639,0.815155,0.0130102,0.577922,0.547032,0.0329358,0.106925,-0.00335219,0.018118,0.061919,0.0268558,0.422031,0.271093
1413393240905760512,-1.22974,2.95074,-0.038226,-0.0335887,0.812618,0.0137251,0.581667,0.528815,0.0240591,0.0516933,-0.00335036,0.0181324,0.0619537,0.0252943,0.421601,0.270038
1413393240955760384,-1.20441,2.95231,-0.0372911,-0.0306692,0.809937,0.0135091,0.585558,0.49167,0.0296633,-0.0153177,-0.00334639,0.0181536,0.0619872,0.0228825,0.423552,0.268501
1413393241005760512,-1.18029,2.95421,-0.0395586,-0.028472,0.807261,0.013428,0.589354,0.482208,0.0401077,-0.0677843,-0.00333136,0.0181579,0.0620287,0.0215381,0.42615,0.264977
1413393241055760384,-1.15644,2.95626,-0.044441,-0.0283058,0.805113,0.0116975,0.59233,0.469046,0.038495,-0.120421,-0.00332058,0.0181671,0.0620607,0.0210903,0.427555,0.263319
1413393241105760512,-1.13354,2.95858,-0.0526418,-0.0308808,0.804508,0.00821362,0.593081,0.447281,0.0500226,-0.188694,-0.00332133,0.0181772,0.0620781,0.02031,0.428768,0.262123
1413393241155760384,-1.11195,2.96097,-0.0627415,-0.0354059,0.804547,0.00294316,0.592826,0.416672,0.0463127,-0.243947,-0.00330543,0.018182,0.0621177,0.0193134,0.431406,0.260207
1413393241205760512,-1.09158,2.9633,-0.0758248,-0.0399969,0.805319,-0.00166602,0.591489,0.400515,0.0432938,-0.266335,-0.00330962,0.0182114,0.0621345,0.0189025,0.430926,0.25887
1413393241255760384,-1.07227,2.96519,-0.0892543,-0.0438333,0.806607,-0.00609974,0.589429,0.377783,0.0285767,-0.270027,-0.0033011,0.0182166,0.0621719,0.0183132,0.431136,0.256814
1413393241305760512,-1.05386,2.96645,-0.101748,-0.0464684,0.809033,-0.00953715,0.585846,0.363566,0.0072023,-0.251533,-0.00329272,0.0182241,0.0621895,0.0185492,0.429839,0.255476
1413393241355760384,-1.03609,2.96628,-0.114805,-0.0459128,0.814259,-0.010762,0.578584,0.34638,-0.00907287,-0.24493,-0.00329006,0.0182394,0.0622197,0.0181621,0.432014,0.254363
1413393241405760512,-1.01887,2.96539,-0.126853,-0.0456821,0.817854,-0.0119719,0.573485,0.341354,-0.0342544,-0.232053,-0.00328956,0.0182543,0.0622329,0.0173965,0.430986,0.252485
1413393241455760384,-1.00183,2.96325,-0.137307,-0.0425143,0.820377,-0.0112831,0.570129,0.340883,-0.0592591,-0.196963,-0.00328232,0.0182518,0.0622757,0.0160194,0.431546,0.250136
1413393241505760512,-0.984794,2.96027,-0.14625,-0.0377604,0.821507,-0.00861272,0.568882,0.340998,-0.0648802,-0.1622,-0.00328327,0.0182626,0.0623039,0.0155073,0.431981,0.247826
1413393241555760384,-0.967503,2.95655,-0.154344,-0.0326976,0.820924,-0.0059475,0.57007,0.34992,-0.0854072,-0.159075,-0.00328002,0.0182785,0.0623387,0.0150025,0.432303,0.246575
1413393241605760512,-0.949937,2.9525,-0.161796,-0.0269814,0.819197,-0.002566,0.572871,0.354066,-0.0825889,-0.159071,-0.00327838,0.0183027,0.0623614,0.0147371,0.432262,0.24441
1413393241655760384,-0.932282,2.94851,-0.169144,-0.0229787,0.817893,0.000370564,0.574912,0.350706,-0.0719759,-0.148287,-0.00328079,0.0182762,0.0623857,0.014254,0.434598,0.243344
1413393241705760512,-0.914704,2.9448,-0.176623,-0.0186369,0.816391,0.00345542,0.577189,0.350285,-0.0721961,-0.152987,-0.0032811,0.0183038,0.06241,0.0135867,0.435573,0.241498
1413393241755760384,-0.897273,2.94154,-0.184407,-0.0165699,0.816065,0.00471573,0.577703,0.349126,-0.0626534,-0.144784,-0.00328617,0.0183127,0.0624369,0.0127968,0.436003,0.239434
1413393241805760512,-0.879888,2.93893,-0.191914,-0.0145739,0.816738,0.00674489,0.576786,0.342806,-0.0405917,-0.147149,-0.00328152,0.0183254,0.0624648,0.0118665,0.437191,0.238006
1413393241855760384,-0.862659,2.93712,-0.19887,-0.0134465,0.817272,0.00849021,0.576033,0.343526,-0.032296,-0.138698,-0.00328975,0.0183235,0.0624955,0.0112807,0.437935,0.23706
1413393241905760512,-0.845616,2.93618,-0.204621,-0.0130342,0.816314,0.00914276,0.57739,0.337084,-0.0138593,-0.0962097,-0.00329446,0.0183332,0.0625173,0.0106703,0.438388,0.235958
1413393241955760384,-0.82904,2.93617,-0.209482,-0.0128511,0.814035,0.0110888,0.580568,0.32454,0.0134875,-0.094345,-0.00328854,0.0183384,0.0625353,0.0100287,0.439349,0.235468
1413393242005760512,-0.812994,2.93701,-0.21448,-0.0135984,0.812336,0.0118549,0.582911,0.317338,0.0206916,-0.0928727,-0.00330794,0.0183462,0.0625518,0.00983971,0.441151,0.234409
1413393242055760384,-0.797817,2.939,-0.218719,-0.0140082,0.809441,0.013287,0.586884,0.30041,0.051917,-0.0679032,-0.00329731,0.0183535,0.0625879,0.00878406,0.439429,0.230995
1413393242105760512,-0.783489,2.94199,-0.222323,-0.0145101,0.806941,0.0151127,0.59026,0.281088,0.0665416,-0.0579254,-0.00329676,0.0183691,0.0626223,0.00718491,0.43762,0.228252
1413393242155760384,-0.77021,2.9458,-0.225515,-0.0171553,0.803473,0.0144865,0.594918,0.258041,0.073626,-0.0480177,-0.00331059,0.0183977,0.0626415,0.00672879,0.433631,0.22799
1413393242205760512,-0.758328,2.95049,-0.227748,-0.0208156,0.799592,0.0135087,0.600031,0.223336,0.101139,-0.0334808,-0.00331559,0.0184167,0.0626717,0.00615688,0.429834,0.226798
1413393242255760384,-0.747968,2.95533,-0.229539,-0.022931,0.797022,0.0134817,0.603364,0.193208,0.0958582,-0.0273067,-0.00332012,0.0184183,0.0626982,0.00538599,0.42934,0.224506
1413393242305760512,-0.739292,2.96058,-0.230889,-0.02538,0.795962,0.012265,0.604691,0.159025,0.0971467,-0.0232245,-0.00332541,0.0184395,0.0627163,0.00266889,0.426041,0.221757
1413393242355760384,-0.732334,2.96637,-0.232294,-0.0292015,0.797095,0.0107186,0.603053,0.131535,0.114417,-0.0352983,-0.00333286,0.0184622,0.0627445,-0.00099031,0.4231,0.219278
1413393242405760512,-0.726757,2.97197,-0.233476,-0.0347311,0.800287,0.00772115,0.59856,0.0983909,0.110572,-0.0288378,-0.00331944,0.0184678,0.0627837,-0.0046366,0.425388,0.215951
1413393242455760384,-0.722432,2.97741,-0.235006,-0.0408882,0.805394,0.00401927,0.591314,0.0754837,0.106728,-0.0244132,-0.00331145,0.0184743,0.0628064,-0.0060821,0.426937,0.214327
1413393242505760512,-0.719064,2.98177,-0.237533,-0.0478503,0.811401,-0.000459622,0.582528,0.055736,0.0961617,-0.0316796,-0.00330094,0.018461,0.0628377,-0.00634883,0.435166,0.212661
1413393242555760384,-0.716288,2.98567,-0.23842,-0.0528089,0.816718,-0.00337477,0.574606,0.054149,0.0703392,-0.000232414,-0.00328906,0.0184682,0.0628618,-0.00667239,0.43864,0.211939
1413393242605760512,-0.713601,2.98854,-0.238286,-0.056344,0.820855,-0.00556664,0.568324,0.0552446,0.0402071,0.00920744,-0.00328902,0.0184671,0.0628783,-0.00675612,0.439791,0.211129
1413393242655760384,-0.710425,2.99005,-0.237091,-0.0580743,0.823492,-0.00632427,0.564312,0.0699147,0.0209767,0.0315798,-0.00328621,0.0184784,0.0629024,-0.00693228,0.441916,0.209299
1413393242705760512,-0.706599,2.99014,-0.235471,-0.0599211,0.824403,-0.00777558,0.562769,0.0876982,-0.0160665,0.0330474,-0.0032842,0.0184992,0.0629136,-0.00714159,0.440672,0.207699
1413393242755760384,-0.701925,2.98881,-0.233064,-0.06367,0.824105,-0.00936864,0.56277,0.100274,-0.0367755,0.0615337,-0.00328021,0.0185081,0.0629506,-0.00738247,0.441481,0.205587
1413393242805760512,-0.696455,2.98604,-0.230024,-0.0649768,0.823301,-0.00793501,0.563818,0.118953,-0.0742826,0.0635035,-0.00327299,0.0185101,0.062976,-0.00772562,0.440982,0.202927
1413393242855760384,-0.690075,2.98163,-0.226395,-0.0645615,0.822488,-0.00335763,0.565097,0.13351,-0.104343,0.0832412,-0.00326751,0.018507,0.0630037,-0.00802002,0.442695,0.200981
1413393242905760512,-0.682848,2.9759,-0.222024,-0.0593749,0.821685,0.00695683,0.566798,0.146697,-0.11903,0.0741726,-0.00326597,0.0185033,0.0630238,-0.00859413,0.443141,0.199879
1413393242955760384,-0.675297,2.96919,-0.217926,-0.0557312,0.822249,0.0169637,0.566139,0.153588,-0.151542,0.0927701,-0.00325692,0.0185071,0.0630423,-0.00991429,0.445816,0.197199
1413393243005760512,-0.667343,2.96201,-0.213095,-0.0537708,0.82333,0.0276946,0.564331,0.165486,-0.144842,0.0965414,-0.00325809,0.0185208,0.0630722,-0.0105393,0.446424,0.195178
1413393243055760384,-0.658653,2.95471,-0.20808,-0.0540922,0.823929,0.0393873,0.562729,0.178691,-0.14516,0.0865074,-0.00325728,0.0185214,0.0631018,-0.0108113,0.447348,0.193443
1413393243105760512,-0.649191,2.94743,-0.203646,-0.0563813,0.824701,0.0503183,0.560497,0.197715,-0.149085,0.101142,-0.00325274,0.0185231,0.0631255,-0.011246,0.44771,0.192564
1413393243155760384,-0.639112,2.94082,-0.198961,-0.0620021,0.823916,0.0612161,0.559974,0.212342,-0.120077,0.121379,-0.00326117,0.0185635,0.0631439,-0.0123394,0.446401,0.19002
1413393243205760512,-0.628139,2.93491,-0.192343,-0.0687625,0.820566,0.0719408,0.562821,0.226985,-0.109834,0.145358,-0.00326858,0.0185587,0.0631648,-0.0123755,0.448586,0.188219
1413393243255760384,-0.616587,2.92919,-0.184773,-0.0748288,0.81513,0.0806504,0.568735,0.23592,-0.119603,0.142333,-0.00325801,0.0185467,0.0631999,-0.0129643,0.45282,0.186839
1413393243305760512,-0.60492,2.92396,-0.178649,-0.0803459,0.809494,0.0888638,0.574775,0.229161,-0.0878111,0.0918164,-0.00326095,0.0185549,0.0632195,-0.0134859,0.454917,0.185005
1413393243355760384,-0.593408,2.91929,-0.175682,-0.0863308,0.805119,0.0950048,0.579055,0.22643,-0.0969997,0.0387895,-0.00326178,0.0185476,0.0632398,-0.0137875,0.457763,0.182749
1413393243405760512,-0.58262,2.91477,-0.174699,-0.0906074,0.800947,0.0999822,0.583333,0.20692,-0.0929324,-0.00957819,-0.00325703,0.0185542,0.0632636,-0.0150038,0.45856,0.179705
1413393243455760384,-0.572895,2.9107,-0.176006,-0.0948759,0.798157,0.104619,0.585661,0.185709,-0.0757442,-0.0464121,-0.00325458,0.0185481,0.063291,-0.0158931,0.459654,0.176801
1413393243505760512,-0.564012,2.90671,-0.179987,-0.0984777,0.795869,0.10814,0.587537,0.166213,-0.0762062,-0.110078,-0.00326019,0.0185648,0.0633081,-0.0176346,0.460053,0.175374
1413393243555760384,-0.556074,2.90287,-0.186917,-0.101766,0.794573,0.110927,0.588211,0.143807,-0.0760334,-0.150901,-0.00326744,0.0185714,0.0633219,-0.0189935,0.460468,0.174222
1413393243605760512,-0.549357,2.89894,-0.194789,-0.103775,0.794043,0.113511,0.588083,0.125738,-0.0750613,-0.156557,-0.00325636,0.0185678,0.0633549,-0.0198203,0.460461,0.171031
1413393243655760384,-0.543771,2.89494,-0.202978,-0.105014,0.794103,0.115785,0.587338,0.10022,-0.0725196,-0.163704,-0.00325779,0.018574,0.063374,-0.021292,0.461559,0.168582
1413393243705760512,-0.539613,2.89109,-0.210817,-0.105182,0.795043,0.118283,0.585537,0.0773652,-0.0644449,-0.129409,-0.00325022,0.0185709,0.0634153,-0.0225378,0.462497,0.165116
1413393243755760384,-0.536605,2.88748,-0.217304,-0.105475,0.796431,0.119836,0.583278,0.0514452,-0.0679464,-0.115453,-0.00323232,0.0185688,0.0634537,-0.0229837,0.462167,0.162163
1413393243805760512,-0.534613,2.88385,-0.222397,-0.104803,0.797757,0.121484,0.581242,0.0270201,-0.0659826,-0.0834457,-0.00323209,0.0185801,0.0634862,-0.0237097,0.462342,0.160184
1413393243855760384,-0.533795,2.88059,-0.225893,-0.106052,0.798359,0.121698,0.580143,0.00990784,-0.0563195,-0.0719035,-0.003225,0.0185875,0.0635224,-0.0245645,0.461663,0.158401
1413393243905760512,-0.53392,2.87721,-0.228812,-0.105463,0.798612,0.122532,0.579727,-0.00381952,-0.05879,-0.0372512,-0.0032106,0.0185923,0.0635417,-0.0250159,0.460827,0.156428
1413393243955760384,-0.534628,2.87404,-0.2307,-0.105409,0.798566,0.122947,0.579712,-0.0205016,-0.0523881,-0.0264409,-0.00320246,0.0185967,0.0635629,-0.0253261,0.460887,0.155801
1413393244005760512,-0.536177,2.87103,-0.232086,-0.105094,0.798859,0.123325,0.579284,-0.0318918,-0.0447281,-0.0207816,-0.00319174,0.01861,0.063571,-0.0254358,0.459969,0.154167
1413393244055760384,-0.538247,2.86829,-0.232288,-0.103693,0.798532,0.123855,0.579875,-0.0443267,-0.0377549,2.23138e-05,-0.00316682,0.0186396,0.0635912,-0.0257363,0.460094,0.152974
1413393244105760512,-0.541089,2.86587,-0.232258,-0.102574,0.798805,0.124324,0.579597,-0.0621923,-0.0282543,0.0231642,-0.00315538,0.0186525,0.0636163,-0.0256069,0.459302,0.152976
1413393244155760384,-0.544829,2.86414,-0.231469,-0.101963,0.798896,0.125542,0.579317,-0.0846519,-0.0165322,0.00580866,-0.00313803,0.0186588,0.06363,-0.0261141,0.458632,0.15101
1413393244205760512,-0.549671,2.86317,-0.230808,-0.103807,0.798479,0.127554,0.579125,-0.0996311,0.00894288,0.0104589,-0.00311119,0.0186746,0.0636511,-0.027036,0.458784,0.148414
1413393244255760384,-0.555336,2.863,-0.229928,-0.105674,0.798307,0.131913,0.578047,-0.116133,0.0204199,0.0159323,-0.00309985,0.0186909,0.0636642,-0.0280906,0.453847,0.146598
1413393244305760512,-0.561641,2.86354,-0.22954,-0.108352,0.798016,0.137467,0.576656,-0.131725,0.0370008,0.0291883,-0.00307939,0.0186909,0.063675,-0.0286037,0.453564,0.146046
1413393244355760384,-0.568537,2.86518,-0.229258,-0.11285,0.797413,0.143956,0.575043,-0.143143,0.0625371,0.015681,-0.00307561,0.0186983,0.0636938,-0.0288476,0.453923,0.14492
1413393244405760512,-0.575691,2.8677,-0.229401,-0.117797,0.795603,0.149031,0.575265,-0.144299,0.054999,-0.0221879,-0.00307497,0.018685,0.0637122,-0.0293932,0.45524,0.14239
1413393244455760384,-0.583486,2.87018,-0.231274,-0.123587,0.793445,0.152586,0.576099,-0.163478,0.0629447,-0.0627964,-0.00306841,0.0186884,0.0637358,-0.0309655,0.45843,0.141142
1413393244505760512,-0.592196,2.87349,-0.235752,-0.129358,0.792048,0.155833,0.575885,-0.175892,0.0669673,-0.122674,-0.00306625,0.0187019,0.0637581,-0.0317501,0.458237,0.138638
1413393244555760384,-0.601192,2.87646,-0.243912,-0.134563,0.790533,0.158026,0.576175,-0.18349,0.0499278,-0.185308,-0.00306555,0.0187109,0.0637861,-0.0327732,0.457443,0.136162
1413393244605760512,-0.610406,2.87939,-0.254171,-0.139064,0.790293,0.160333,0.574798,-0.186916,0.0598134,-0.212236,-0.00306761,0.0187275,0.0638081,-0.0335656,0.457929,0.134575
1413393244655760384,-0.62004,2.88236,-0.263935,-0.143221,0.790191,0.162237,0.573381,-0.182206,0.0595686,-0.177895,-0.00306411,0.0187151,0.0638389,-0.0345553,0.45981,0.131544
1413393244705760512,-0.629793,2.88517,-0.269833,-0.146412,0.789166,0.164091,0.573459,-0.219397,0.0384117,-0.106474,-0.00306174,0.0187351,0.0638631,-0.0349889,0.461313,0.130098
1413393244755760384,-0.641636,2.88726,-0.27522,-0.151292,0.789847,0.163684,0.571366,-0.237292,0.0275339,-0.0951444,-0.00306571,0.0187426,0.063873,-0.0339405,0.460022,0.128603
1413393244805760512,-0.653699,2.88856,-0.278028,-0.156517,0.789804,0.162367,0.570394,-0.240868,0.0208395,-0.0282508,-0.00307382,0.0187555,0.0639065,-0.0328139,0.459756,0.128464
1413393244855760384,-0.666288,2.88921,-0.277587,-0.15997,0.790535,0.161752,0.568595,-0.258676,0.00642116,0.060646,-0.00307191,0.0187715,0.0639211,-0.0321073,0.458474,0.127403
1413393244905760512,-0.678284,2.88931,-0.272177,-0.162447,0.790562,0.160614,0.568177,-0.229382,-0.00822759,0.149033,-0.00307194,0.0187713,0.0639585,-0.0308193,0.458432,0.126755
1413393244955760384,-0.689769,2.88847,-0.262733,-0.162772,0.790367,0.160704,0.56833,-0.243816,-0.030538,0.215831,-0.00307573,0.0187828,0.0639915,-0.0298503,0.458067,0.125395
1413393245005760512,-0.702198,2.8864,-0.253174,-0.159987,0.791608,0.162702,0.566823,-0.247114,-0.0513261,0.199641,-0.00307103,0.018789,0.0640152,-0.0292226,0.458449,0.124455
1413393245055760384,-0.714743,2.8835,-0.244386,-0.157559,0.793873,0.163597,0.564072,-0.252698,-0.0618098,0.16437,-0.00307423,0.0187855,0.0640339,-0.0281837,0.458021,0.124523
1413393245105760512,-0.727335,2.88032,-0.237364,-0.154488,0.796386,0.165401,0.560844,-0.251017,-0.0639227,0.109024,-0.00307686,0.0187768,0.0640518,-0.02709,0.457916,0.123339
1413393245155760384,-0.739423,2.87693,-0.233095,-0.152452,0.799426,0.165894,0.556917,-0.239385,-0.0729218,0.0596858,-0.00307366,0.0187792,0.0640675,-0.0266959,0.457822,0.122349
1413393245205760512,-0.751196,2.87335,-0.230939,-0.150078,0.802424,0.166795,0.552966,-0.23279,-0.0769607,0.0161036,-0.00306243,0.0187711,0.0640983,-0.0262475,0.455833,0.121605
1413393245255760384,-0.762645,2.86944,-0.231268,-0.147635,0.803625,0.16804,0.551502,-0.225699,-0.0816841,-0.0386329,-0.00306731,0.0187637,0.0641142,-0.0265217,0.455993,0.121696
1413393245305760512,-0.77351,2.86567,-0.235141,-0.145331,0.804371,0.169137,0.550689,-0.212099,-0.071149,-0.095067,-0.0030769,0.0187864,0.0641336,-0.0269005,0.453275,0.122844
1413393245355760384,-0.783884,2.86213,-0.242158,-0.142883,0.803794,0.170605,0.551719,-0.203014,-0.060075,-0.135288,-0.00307279,0.0188017,0.0641478,-0.0270035,0.451464,0.123303
1413393245405760512,-0.793787,2.85931,-0.249551,-0.141023,0.802882,0.1714,0.553277,-0.181116,-0.0599149,-0.167494,-0.00307286,0.0187945,0.0641633,-0.0268882,0.44987,0.122458
1413393245455760384,-0.802858,2.85686,-0.257636,-0.138683,0.801449,0.172618,0.555563,-0.181874,-0.0540195,-0.208064,-0.00308887,0.0188328,0.0641982,-0.0268498,0.446284,0.123191
1413393245505760512,-0.811994,2.85417,-0.26997,-0.136862,0.800021,0.173642,0.557748,-0.176842,-0.0427057,-0.232696,-0.00307935,0.0188691,0.0642472,-0.0249706,0.446104,0.124161
1413393245555760384,-0.820347,2.85218,-0.279468,-0.135048,0.798231,0.174253,0.560558,-0.168434,-0.0422635,-0.227329,-0.00309938,0.0188693,0.0642227,-0.0209596,0.446325,0.129877
1413393245605760512,-0.799408,2.85987,-0.186039,-0.129235,0.81593,0.17575,0.535414,-0.189998,-0.0385745,-0.216975,-0.00337382,0.0201728,0.0630101,0.208494,0.503247,0.749292
