#timestamp, p_RS_R_x [m], p_RS_R_y [m], p_RS_R_z [m], q_RS_w [], q_RS_x [], q_RS_y [], q_RS_z [], v_RS_R_x [m s^-1], v_RS_R_y [m s^-1], v_RS_R_z [m s^-1], b_w_RS_S_x [rad s^-1], b_w_RS_S_y [rad s^-1], b_w_RS_S_z [rad s^-1], b_a_RS_S_x [m s^-2], b_a_RS_S_y [m s^-2], b_a_RS_S_z [m s^-2]
1413393212255760384,-1.34456,0.503589,1.11566,0.602309,0.00669787,-0.79818,0.00938892,-0.00274659,0.00902984,0.00511808,-0.00246283,0.0220529,0.071566,-0.000440799,3.23746e-05,0.000339298
1413393212305760512,-1.05562,0.217302,1.15772,0.603333,-0.00285371,-0.797473,0.00427132,-0.00361214,-0.00126285,-0.0229389,-3.26915e-05,0.000914615,0.00371032,-2.98545e-05,3.59866e-05,-1.77719e-05
1413393212355760384,-0.999639,0.41031,1.27456,0.604003,-0.00228248,-0.796959,0.00559467,-0.0116337,-0.00982648,-0.00434196,-0.000133143,0.00126022,0.00436311,-0.000133004,4.58626e-05,-5.77849e-06
1413393212405760512,-0.95596,0.395724,1.28543,0.604352,-0.00291268,-0.796694,0.00547327,-0.00998867,-0.00631947,-0.00607138,-0.000263254,0.00143353,0.00482145,-4.38207e-05,5.1022e-05,-2.77711e-05
1413393212455760384,-1.05601,0.21727,1.15416,0.603458,-0.00301975,-0.797378,0.00419441,4.65652e-05,-0.00102111,-0.0244061,-3.2698e-05,0.000914767,0.00371095,-5.90515e-05,9.59877e-05,-4.36965e-05
1413393212505760512,-0.872877,0.372004,1.31431,0.604171,-0.00250972,-0.796833,0.00531477,-0.00392202,-0.00514643,-0.0048681,-0.000456932,0.00154008,0.0054874,0.000314825,6.37039e-05,-0.000153978
1413393212555760384,-1.00093,0.409254,1.27341,0.604179,-0.00228188,-0.796826,0.00550828,-0.00256719,-0.00567554,-0.00858379,-0.000133184,0.00126047,0.00436397,-0.000208577,6.1883e-05,-3.16631e-06
1413393212605760512,-1.05579,0.217673,1.15025,0.60366,-0.0029859,-0.797226,0.0041427,0.00270868,0.00756023,-0.0278569,-3.27063e-05,0.000914853,0.00371132,-4.54049e-05,0.000123486,-6.05405e-05
1413393212655760384,-0.763004,0.344941,1.34573,0.603545,-0.00166956,-0.797313,0.00474537,-0.00148244,-0.000136186,-0.00926581,-0.000548323,0.00185122,0.00659987,0.000227485,0.000201991,-0.000204214
1413393212705760512,-0.956494,0.395371,1.28303,0.604787,-0.0030321,-0.796361,0.00569224,0.00717047,0.00249503,-0.0123393,-0.000263374,0.0014339,0.0048226,0.000140738,3.42344e-05,-3.49425e-05
1413393212755760384,-1.00058,0.40971,1.27134,0.604519,-0.00245595,-0.796567,0.00572096,0.00714522,0.00712062,-0.0125119,-0.000133217,0.00126061,0.00436436,-0.000181896,3.1519e-05,-2.28113e-06
1413393212805760512,-0.891567,0.378011,1.30361,0.603309,-0.0011062,-0.797498,0.00378354,0.00213134,-0.00702797,-0.0106863,-0.000422913,0.00207537,0.00768136,0.000101324,0.00095819,-6.30623e-05
1413393212855760384,-0.871635,0.373079,1.31028,0.60482,-0.00334935,-0.796331,0.00623927,0.0127326,0.01194,-0.0154407,-0.000457162,0.00154045,0.00548862,0.000850986,0.000132166,-0.000242467
1413393212905760512,-0.95392,0.397456,1.28031,0.605171,-0.00441394,-0.796054,0.00692539,0.0181859,0.0177192,-0.0154412,-0.000263431,0.00143401,0.00482283,0.000232206,4.61804e-05,-4.83311e-05
1413393212955760384,-0.933548,0.385555,1.28043,0.603093,-0.00180726,-0.797658,0.00419752,0.00240675,-0.00861991,-0.0100875,-0.000476831,0.00238806,0.00876415,-0.00264258,0.00157715,0.00050725
1413393213005760512,-0.760941,0.346391,1.34117,0.604062,-0.00387268,-0.796897,0.007,0.012777,0.0130712,-0.0151792,-0.000548574,0.00185161,0.00660119,0.000455982,0.000585363,-0.000336938
1413393213055760384,-0.867872,0.376743,1.30679,0.605312,-0.00601236,-0.795914,0.00901765,0.0245512,0.0288379,-0.0193181,-0.000457255,0.00154051,0.00548884,0.000920941,0.000192441,-0.000246842
1413393213105760512,-0.947606,0.390654,1.27372,0.603138,-0.00296047,-0.797614,0.00538736,0.00120743,-0.00504145,-0.0109931,-0.000508552,0.00271873,0.00979807,-0.00626855,0.00232128,0.0013449
1413393213155760384,-0.889331,0.376954,1.29873,0.604106,-0.00419973,-0.796871,0.0060163,0.00948929,0.00391988,-0.0179629,-0.000423089,0.00207575,0.00768283,0.000142828,0.00184775,-4.37838e-05
1413393213205760512,-0.757907,0.35075,1.33737,0.604932,-0.00560662,-0.796204,0.00925714,0.0191848,0.035108,-0.0214119,-0.000548672,0.0018517,0.00660154,0.000468521,0.000685917,-0.000371397
1413393213255760384,-0.929863,0.386882,1.27391,0.603168,-0.00317124,-0.797593,0.00497623,0.00254223,-0.000102646,-0.00616159,-0.000595789,0.00298452,0.0106544,-0.00827533,0.00337371,0.00190737
1413393213305760512,-0.931798,0.385555,1.27607,0.603867,-0.00383805,-0.797055,0.00585979,0.00704565,0.00507988,-0.0141915,-0.000477026,0.00238845,0.00876576,-0.0031821,0.00240633,0.000584664
1413393213355760384,-0.886568,0.378983,1.2947,0.604761,-0.00488772,-0.79636,0.00715408,0.018193,0.0185373,-0.0248348,-0.000423165,0.00207584,0.00768319,0.000171245,0.00201368,-1.99322e-05
1413393213405760512,-0.915389,0.391725,1.28228,0.603135,-0.000848053,-0.797612,0.00651611,0.00279291,0.00425271,-0.00450942,-0.000639405,0.00340515,0.011861,-0.0100151,0.00437528,0.00326054
1413393213455760384,-0.946347,0.391643,1.27026,0.603703,-0.00367321,-0.797177,0.0061925,0.00565226,0.00841581,-0.0136244,-0.000508753,0.00271914,0.00979973,-0.00705303,0.00302432,0.00143276
1413393213505760512,-0.929703,0.388201,1.27254,0.604385,-0.00461523,-0.796647,0.00714597,0.0127521,0.0193046,-0.0202911,-0.000477105,0.00238855,0.00876615,-0.00321741,0.00251276,0.000576104
1413393213555760384,-0.932864,0.397589,1.27834,0.603114,-0.000174649,-0.797626,0.00679922,0.00391828,0.00627857,-0.00380639,-0.000720377,0.00365273,0.0127972,-0.010014,0.00473295,0.00405714
1413393213605760512,-0.928472,0.389008,1.27058,0.603745,-0.00366437,-0.797147,0.00606564,0.00861118,0.0155428,-0.0102275,-0.000596016,0.00298494,0.010656,-0.00881785,0.00421843,0.00211929
1413393213655760384,-0.944653,0.394852,1.26759,0.604102,-0.00378674,-0.796867,0.00699736,0.0125412,0.0227214,-0.0145658,-0.000508826,0.00271925,0.00980014,-0.00710125,0.00311651,0.00145227
1413393213705760512,-0.942864,0.399374,1.2742,0.603204,-6.85105e-05,-0.797558,0.00677296,0.00680224,0.0061398,-0.00385951,-0.000790492,0.00389792,0.0137705,-0.0110938,0.00509531,0.00471008
1413393213755760384,-0.913639,0.3944,1.28026,0.603456,-0.000985735,-0.797362,0.00732951,0.00988742,0.013371,-0.00711452,-0.000639622,0.00340559,0.0118627,-0.0104218,0.00525723,0.00373846
1413393213805760512,-0.926155,0.392796,1.26813,0.604197,-0.0039193,-0.796794,0.00701423,0.0150386,0.0260942,-0.0156404,-0.000596097,0.00298505,0.0106564,-0.00880698,0.00432253,0.00215234
1413393213855760384,-0.942221,0.401357,1.27554,0.60321,3.9373e-05,-0.797553,0.00684133,0.00713431,0.0101606,-0.00373098,-0.000855575,0.00416653,0.0147272,-0.0138828,0.00582708,0.00481311
1413393213905760512,-0.930198,0.400928,1.27631,0.603423,-0.000277602,-0.797385,0.00757736,0.0107833,0.0129383,-0.00743245,-0.000720615,0.00365314,0.0127988,-0.0101318,0.00550604,0.00451949
1413393213955760384,-0.911432,0.397818,1.27863,0.603593,-0.00110733,-0.797249,0.00821667,0.0135899,0.0207934,-0.00703295,-0.0006397,0.0034057,0.0118631,-0.010429,0.00538239,0.00382227
1413393214005760512,-0.960145,0.411044,1.27217,0.602907,0.000470084,-0.797782,0.00690614,0.00746533,0.023571,0.00237502,-0.000894787,0.00444286,0.015687,-0.0170538,0.00671359,0.00353204
1413393214055760384,-0.939658,0.40359,1.27225,0.603433,-0.000191238,-0.797379,0.00744035,0.0140088,0.0251874,-0.00579808,-0.000790747,0.00389832,0.0137721,-0.0113234,0.0059855,0.00505363
1413393214105760512,-0.927784,0.404812,1.27474,0.603446,-0.000379832,-0.79736,0.00837517,0.0146607,0.0264685,-0.00834727,-0.000720706,0.00365324,0.0127991,-0.010089,0.00563103,0.00456721
1413393214155760384,-0.971758,0.419482,1.26481,0.602948,0.00127909,-0.797744,0.00748571,0.00905967,0.0126916,-0.00197122,-0.000948915,0.00469694,0.0165204,-0.0192287,0.00830384,0.00292177
1413393214205760512,-0.938876,0.406373,1.2739,0.603364,-8.48217e-06,-0.797426,0.00799156,0.0125015,0.0193347,-0.00755714,-0.000855829,0.00416694,0.0147289,-0.0144732,0.00692975,0.00475337
1413393214255760384,-0.936775,0.407864,1.27026,0.603823,-0.000184165,-0.797072,0.00865477,0.0171968,0.0243442,-0.0126253,-0.00079083,0.00389842,0.0137725,-0.01132,0.0061359,0.00507391
1413393214305760512,-0.991898,0.429149,1.25678,0.602964,0.00251236,-0.797719,0.00849061,0.00556397,0.00827171,-0.00472946,-0.000961329,0.00497042,0.0174029,-0.0211678,0.0102467,0.00224384
1413393214355760384,-0.95697,0.416285,1.27052,0.60343,0.000392046,-0.797375,0.00806224,0.0107458,0.0182502,-0.00660338,-0.000895019,0.00444329,0.0156886,-0.0178902,0.00786867,0.00271097
1413393214405760512,-0.935791,0.410702,1.27202,0.603797,0.000131915,-0.79709,0.00879676,0.0189726,0.0245745,-0.0116828,-0.000855906,0.00416704,0.0147293,-0.0145215,0.00708979,0.00467628
1413393214455760384,-1.06202,0.44788,1.22832,0.60304,0.00333264,-0.797652,0.00916379,0.00547345,0.0122219,-0.00213688,-0.00100569,0.00519855,0.0181385,-0.0218613,0.0112978,0.0028163
1413393214505760512,-0.968685,0.424652,1.26342,0.60336,0.00151516,-0.797422,0.0085997,0.0107846,0.0167568,-0.00272905,-0.000949133,0.00469739,0.016522,-0.0197954,0.00964116,0.00209406
1413393214555760384,-0.954203,0.420456,1.2692,0.603722,0.000548772,-0.797145,0.00891451,0.0171981,0.0220402,-0.00711409,-0.000895091,0.0044434,0.0156891,-0.0179486,0.00800842,0.00253773
1413393214605760512,-1.11216,0.46055,1.2065,0.603061,0.0035626,-0.797633,0.00928396,0.005694,0.0118429,-0.00135261,-0.00107234,0.00541913,0.0189069,-0.0227323,0.0125921,0.00422439
1413393214655760384,-0.989365,0.433746,1.25585,0.603259,0.00289595,-0.797486,0.00932346,0.00949484,0.0116523,-0.00165835,-0.00096152,0.00497088,0.0174045,-0.0213893,0.0117365,0.00169128
1413393214705760512,-0.966168,0.42835,1.26249,0.603621,0.00165623,-0.797214,0.00942209,0.0130044,0.0211379,-0.00662,-0.000949201,0.0046975,0.0165224,-0.0197441,0.00982201,0.00206422
1413393214755760384,-1.12615,0.46536,1.20033,0.603119,0.00380786,-0.797586,0.00951233,0.00723043,0.0101339,-0.000294413,-0.00117874,0.0056238,0.0195737,-0.0234995,0.0129597,0.00519015
1413393214805760512,-1.05971,0.451979,1.22769,0.603233,0.00362831,-0.797496,0.0098439,0.00738607,0.0123201,-0.00148551,-0.00100587,0.00519902,0.0181401,-0.0216383,0.0125357,0.00281722
1413393214855760384,-0.987606,0.436661,1.25525,0.603442,0.00294367,-0.79734,0.00992958,0.00949362,0.018017,-0.00276522,-0.000961583,0.004971,0.0174049,-0.0212946,0.0119255,0.00168576
1413393214905760512,-1.1279,0.468965,1.19842,0.603109,0.00428432,-0.797585,0.00996858,0.00859007,0.0114044,0.00176988,-0.00128706,0.00585033,0.0203029,-0.023719,0.012883,0.00494585
1413393214955760384,-1.10949,0.464619,1.20638,0.603199,0.00373324,-0.79752,0.00998889,0.00937878,0.0131757,0.00204778,-0.00107252,0.00541959,0.0189085,-0.0224853,0.0137173,0.00471823
1413393215005760512,-1.05806,0.454746,1.22758,0.603272,0.00369097,-0.79746,0.0103826,0.00916151,0.0167367,0.00124035,-0.00100593,0.00519914,0.0181405,-0.0215182,0.0126496,0.00283258
1413393215055760384,-1.11886,0.468802,1.20092,0.602848,0.00460737,-0.797779,0.0101018,0.0073319,0.00992095,0.00600193,-0.00137295,0.00605401,0.0209629,-0.0231911,0.01529,0.00442641
1413393215105760512,-1.12312,0.469833,1.20096,0.602896,0.00393389,-0.79774,0.0105549,0.0092467,0.00764848,-0.000696919,-0.00117894,0.00562426,0.0195752,-0.023433,0.0137353,0.00558827
1413393215155760384,-1.10759,0.46762,1.20665,0.603135,0.00383449,-0.797558,0.0106946,0.0104372,0.0160849,-0.000787649,-0.00107258,0.00541971,0.0189089,-0.0224293,0.0138705,0.00480232
1413393215205760512,-1.11072,0.469142,1.20146,0.602698,0.00520207,-0.797881,0.0107194,0.00663048,0.0107223,0.000798789,-0.00139252,0.00627122,0.0217366,-0.0245914,0.0183458,0.0023395
1413393215255760384,-1.12485,0.473996,1.19934,0.602938,0.00452248,-0.797701,0.0109432,0.00970508,0.016961,-0.00128813,-0.00128729,0.00585079,0.0203044,-0.0236335,0.0132534,0.004859
1413393215305760512,-1.12098,0.473352,1.20116,0.603054,0.00412092,-0.797613,0.0110504,0.0116823,0.0209908,-0.00100604,-0.00117901,0.00562437,0.0195756,-0.0234211,0.013796,0.00562355
1413393215355760384,-1.12841,0.476104,1.19307,0.602633,0.00561188,-0.797919,0.0112612,0.00843079,0.0113928,0.00264022,-0.00143234,0.00649175,0.0224266,-0.0266581,0.020847,0.000719621
1413393215405760512,-1.11562,0.473992,1.20169,0.602737,0.0047854,-0.797843,0.0114625,0.0126335,0.0199425,0.00195152,-0.0013732,0.00605446,0.0209644,-0.0228395,0.0161579,0.00403073
1413393215455760384,-1.12238,0.478305,1.19988,0.602678,0.00460165,-0.797884,0.0117976,0.0126627,0.0272052,0.00453679,-0.00128737,0.00585091,0.0203048,-0.0235918,0.0132501,0.00480121
1413393215505760512,-1.1321,0.479475,1.18909,0.602061,0.00613354,-0.798339,0.0118255,0.00588326,0.0127172,0.00643629,-0.00147503,0.00668976,0.023024,-0.0282903,0.0242061,0.000393805
1413393215555760384,-1.10779,0.4742,1.20291,0.602176,0.0053385,-0.798259,0.0118117,0.00572098,0.0173559,0.00591282,-0.00139274,0.00627167,0.0217381,-0.0245177,0.0195615,0.00127493
1413393215605760512,-1.11336,0.478304,1.20226,0.60232,0.00506601,-0.798146,0.0121531,0.0101736,0.0240956,0.00576665,-0.00137328,0.00605458,0.0209648,-0.0227466,0.0163048,0.00393685
1413393215655760384,-1.14812,0.485944,1.1812,0.601564,0.00639646,-0.798704,0.0123651,0.00150378,0.0136332,0.00979756,-0.00155766,0.00688915,0.0236191,-0.0304065,0.0264861,0.000990525
1413393215705760512,-1.12648,0.480993,1.19506,0.601182,0.00558057,-0.798996,0.0124625,0.00871394,0.0151804,-0.00154298,-0.00143254,0.0064922,0.0224281,-0.0270489,0.021959,-0.000403001
1413393215755760384,-1.10605,0.478148,1.20333,0.600921,0.00526294,-0.79919,0.0126939,0.0163899,0.0244038,-0.00780149,-0.00139281,0.00627178,0.0217385,-0.0245228,0.0196952,0.00109151
1413393215805760512,-1.16724,0.489756,1.17271,0.600063,0.00675786,-0.799828,0.0124274,0.0129949,0.0104683,0.0125817,-0.00160197,0.0070346,0.0242866,-0.0341254,0.0296472,0.00372576
1413393215855760384,-1.12984,0.484155,1.19081,0.599938,0.00639903,-0.79992,0.0126715,0.0117922,0.016295,0.00690879,-0.00147522,0.0066902,0.0230254,-0.0287544,0.0255933,2.9521e-05
1413393215905760512,-1.12362,0.484932,1.19514,0.600034,0.00591821,-0.799845,0.0131256,0.0136968,0.021948,0.00444131,-0.0014326,0.00649232,0.0224285,-0.0271115,0.0220525,-0.000494053
1413393215955760384,-1.16972,0.491499,1.16948,0.599555,0.00696773,-0.800196,0.013085,0.0113409,0.0124949,0.00964699,-0.00164845,0.00726743,0.0248627,-0.0365143,0.0338867,0.00721345
1413393216005760512,-1.14482,0.490677,1.18269,0.599762,0.00682197,-0.800042,0.0131558,0.0161347,0.0157131,0.00713319,-0.00155787,0.00688959,0.0236205,-0.0307998,0.027785,0.00130565
1413393216055760384,-1.1275,0.487697,1.19102,0.600016,0.0067371,-0.799853,0.0131038,0.00948237,0.0218222,0.000274315,-0.00147528,0.00669032,0.0230258,-0.0287538,0.0257927,0.000102993
1413393216105760512,-1.18844,0.494824,1.16131,0.599549,0.00739274,-0.800205,0.0125931,0.00690868,0.0109732,-0.00115872,-0.00167245,0.0074446,0.02549,-0.037858,0.0379472,0.0106007
1413393216155760384,-1.16395,0.494393,1.17415,0.600064,0.00719493,-0.799813,0.0130645,0.00652496,0.0155173,0.000276666,-0.00160218,0.007035,0.024288,-0.0349241,0.0313998,0.00484012
1413393216205760512,-1.14333,0.494139,1.18262,0.600003,0.00723042,-0.799851,0.0134874,0.004766,0.026255,-0.00656303,-0.00155795,0.0068897,0.0236209,-0.0307739,0.0279281,0.00135883
1413393216255760384,-1.20863,0.500277,1.15389,0.598648,0.00783368,-0.800869,0.0130129,-0.0020612,0.0128498,0.00776115,-0.00167594,0.00759484,0.0260909,-0.0385717,0.0413448,0.0134036
1413393216305760512,-1.16747,0.495955,1.17156,0.597656,0.0077067,-0.8016,0.0136243,0.00227738,0.0141835,0.0036347,-0.00164865,0.00726785,0.0248641,-0.0371286,0.0361203,0.00861606
1413393216355760384,-1.16329,0.498685,1.17456,0.597389,0.00698797,-0.801794,0.0143174,0.00909733,0.0304367,-0.00441875,-0.00160225,0.00703509,0.0242884,-0.0350418,0.0316602,0.00502323
1413393216405760512,-1.22374,0.504154,1.14731,0.5966,0.00758078,-0.802388,0.013609,0.00948218,0.00328444,-0.00371792,-0.00169734,0.00778422,0.0266557,-0.0384221,0.0452879,0.019709
1413393216455760384,-1.18646,0.49909,1.1634,0.596758,0.0077996,-0.802266,0.013729,0.00360651,0.0150771,0.0116638,-0.00167264,0.00744501,0.0254914,-0.0381145,0.039864,0.0120877
1413393216505760512,-1.16626,0.500104,1.17195,0.595164,0.00740074,-0.803449,0.0139753,0.00833582,0.032721,0.0101444,-0.00164872,0.00726796,0.0248644,-0.0371188,0.0363623,0.00881471
1413393216555760384,-1.25807,0.51119,1.13468,0.594291,0.00679414,-0.804131,0.0120981,0.00782212,0.0197036,-0.0174594,-0.00169897,0.00792806,0.0272265,-0.0387188,0.0484745,0.0262597
1413393216605760512,-1.20666,0.505552,1.15526,0.593859,0.0056348,-0.804445,0.0129758,0.00179902,0.0319608,-0.0128073,-0.0016761,0.00759524,0.0260923,-0.0384921,0.042607,0.0147858
1413393216655760384,-1.18565,0.504296,1.16384,0.594664,0.00521027,-0.803858,0.0126748,-0.000674608,0.0252635,0.0200975,-0.0016727,0.00744512,0.0254917,-0.0380713,0.0399635,0.0122448
1413393216705760512,-1.27202,0.517246,1.13044,0.595145,0.00576107,-0.803548,0.00895718,0.0201172,0.0250124,0.0356143,-0.00170325,0.00810667,0.0277913,-0.0381266,0.0506984,0.0308324
1413393216755760384,-1.22119,0.510478,1.15191,0.595495,0.00615152,-0.803311,0.00637288,0.00985233,0.0260154,0.0453451,-0.00169749,0.00778462,0.0266571,-0.0380466,0.0468641,0.0220013
1413393216805760512,-1.20532,0.51101,1.16168,0.596169,0.00662521,-0.802821,0.00411748,0.00976038,0.0234482,0.082569,-0.00167615,0.00759533,0.0260926,-0.0384501,0.0426979,0.0149308
1413393216855760384,-1.27928,0.52361,1.13546,0.596916,0.00687818,-0.802274,0.00103548,0.0245083,0.0140344,0.0920384,-0.00171654,0.00826688,0.0283022,-0.036385,0.0532098,0.0323628
1413393216905760512,-1.25249,0.517636,1.15162,0.59888,0.00685917,-0.800809,-0.000997882,0.032397,0.00500896,0.125562,-0.00169909,0.00792845,0.0272278,-0.0383619,0.0502924,0.0290864
1413393216955760384,-1.2164,0.513997,1.17093,0.599079,0.00814658,-0.800641,-0.00350703,0.0349777,0.0101509,0.137265,-0.00169754,0.00778473,0.0266574,-0.0379521,0.0471166,0.022389
1413393217005760512,-1.28039,0.526541,1.15331,0.598258,0.00841299,-0.801236,-0.00622323,0.0558331,-0.00951509,0.158963,-0.00170972,0.00839073,0.0288477,-0.0375012,0.0550119,0.0319677
1413393217055760384,-1.25994,0.519784,1.16921,0.596522,0.00831654,-0.802523,-0.00702892,0.0670725,-0.0303263,0.22318,-0.00170335,0.00810706,0.0277926,-0.0375812,0.0522308,0.0330495
1413393217105760512,-1.24169,0.515675,1.18784,0.595651,0.00779413,-0.803174,-0.00710446,0.0798941,-0.0318504,0.270526,-0.00169912,0.00792854,0.0272282,-0.038303,0.0505067,0.0294473
1413393217155760384,-1.27182,0.523778,1.18921,0.594005,0.00751642,-0.804394,-0.00726541,0.0880159,-0.0621125,0.278349,-0.00168303,0.00854563,0.0293783,-0.0393958,0.0560547,0.0301724
1413393217205760512,-1.25715,0.515594,1.20502,0.593536,0.00692414,-0.804743,-0.00753038,0.104227,-0.0726391,0.2625,-0.00171662,0.00826727,0.0283036,-0.0354946,0.0544164,0.0332561
1413393217255760384,-1.24122,0.509071,1.22197,0.593907,0.00690646,-0.804457,-0.00871998,0.109785,-0.0768395,0.245182,-0.00170337,0.00810716,0.027793,-0.0374454,0.0523738,0.0332384
1413393217305760512,-1.25197,0.513495,1.22926,0.592901,0.00793731,-0.805176,-0.0098548,0.116408,-0.0984136,0.21116,-0.00168841,0.0087522,0.0298395,-0.0414447,0.0568536,0.0289926
1413393217355760384,-1.24705,0.504232,1.23643,0.59241,0.00742947,-0.805541,-0.00994435,0.132604,-0.113825,0.173401,-0.00170977,0.00839108,0.0288491,-0.0371555,0.0557633,0.0316342
1413393217405760512,-1.23216,0.496516,1.24637,0.591635,0.00724274,-0.806107,-0.0103396,0.156528,-0.11549,0.157344,-0.00171664,0.00826738,0.0283039,-0.0353331,0.0545307,0.0332499
1413393217455760384,-1.22944,0.495229,1.25637,0.590082,0.00777505,-0.807237,-0.0105459,0.159128,-0.145813,0.145773,-0.00169476,0.00894175,0.0302591,-0.0428399,0.058142,0.0291318
1413393217505760512,-1.22694,0.486277,1.25938,0.589964,0.00788404,-0.807317,-0.0109278,0.165854,-0.165986,0.128044,-0.00168305,0.00854597,0.0293796,-0.039731,0.0563147,0.029076
1413393217555760384,-1.21456,0.475961,1.26433,0.590299,0.00714365,-0.807075,-0.0112504,0.194598,-0.163893,0.0997528,-0.00170979,0.00839116,0.0288494,-0.0371727,0.0557977,0.0315003
1413393217605760512,-1.21073,0.46995,1.27113,0.58988,0.00829634,-0.807361,-0.0118828,0.188364,-0.203549,0.0859102,-0.00168871,0.00910474,0.030768,-0.0422268,0.0590585,0.0287971
1413393217655760384,-1.19513,0.459879,1.27608,0.589994,0.00835708,-0.807283,-0.0114994,0.202205,-0.207616,0.0899132,-0.00168843,0.00875255,0.0298407,-0.0420474,0.0569724,0.0280014
1413393217705760512,-1.18803,0.447827,1.27862,0.590385,0.00778013,-0.806998,-0.0118262,0.211102,-0.22554,0.128797,-0.00168306,0.00854603,0.02938,-0.0398001,0.056279,0.0289417
1413393217755760384,-1.19653,0.436059,1.28288,0.590438,0.00801008,-0.806956,-0.0119133,0.211319,-0.260245,0.176636,-0.00169099,0.0091894,0.0312917,-0.0392364,0.0589553,0.0288894
1413393217805760512,-1.16204,0.423542,1.30039,0.590343,0.00805895,-0.807036,-0.0111325,0.219274,-0.26345,0.208564,-0.0016948,0.00894213,0.0302603,-0.0429253,0.0587418,0.0290226
1413393217855760384,-1.15211,0.410557,1.30951,0.590579,0.00692199,-0.806884,-0.0103061,0.229534,-0.27226,0.230197,-0.00168845,0.00875264,0.0298411,-0.0420612,0.0570025,0.0279565
1413393217905760512,-1.16548,0.388849,1.31525,0.590559,0.0064905,-0.806897,-0.0107846,0.224854,-0.304319,0.269598,-0.00167651,0.00928397,0.0317629,-0.0390225,0.060258,0.0264998
1413393217955760384,-1.13579,0.380073,1.33623,0.591239,0.00665574,-0.806409,-0.00984878,0.235868,-0.300666,0.29083,-0.00168876,0.00910515,0.0307692,-0.0413559,0.0599965,0.0293165
1413393218005760512,-1.11584,0.364929,1.35257,0.591049,0.00545088,-0.806575,-0.00834953,0.244055,-0.315727,0.268931,-0.00169482,0.00894224,0.0302606,-0.0427591,0.0589118,0.0290957
1413393218055760384,-1.12554,0.336085,1.35735,0.591387,0.00279778,-0.806355,-0.00669591,0.243671,-0.335105,0.217029,-0.00161863,0.00945508,0.0322787,-0.0411981,0.0612929,0.0240222
1413393218105760512,-1.11485,0.331414,1.3665,0.591132,0.000609295,-0.80657,-0.00265443,0.253623,-0.320618,0.188803,-0.00169105,0.00918978,0.031293,-0.0375163,0.0598018,0.0296373
1413393218155760384,-1.08612,0.315528,1.38101,0.590969,-0.0032295,-0.806683,0.00300468,0.256498,-0.337322,0.141466,-0.00168879,0.00910526,0.0307695,-0.0411062,0.060107,0.029409
1413393218205760512,-1.09304,0.284004,1.38019,0.591082,-0.00749865,-0.806541,0.00755425,0.261843,-0.340822,0.08989,-0.00158556,0.00964415,0.0326824,-0.0430438,0.0611229,0.0225606
1413393218255760384,-1.07783,0.27541,1.38303,0.590287,-0.0120853,-0.806977,0.0142552,0.282866,-0.302794,0.0376364,-0.00167658,0.0092843,0.0317641,-0.0379221,0.0611064,0.026435
1413393218305760512,-1.06052,0.267494,1.38457,0.589012,-0.0154145,-0.807738,0.0196612,0.281511,-0.298005,0.00167904,-0.00169107,0.00918987,0.0312933,-0.0372239,0.0598755,0.0297593
1413393218355760384,-1.06522,0.240378,1.38003,0.588425,-0.0156297,-0.808189,0.0185165,0.280144,-0.278502,-0.0332363,-0.0015527,0.00972835,0.0330865,-0.0438955,0.0592388,0.0197914
1413393218405760512,-1.03194,0.226789,1.38291,0.589429,-0.0133696,-0.807585,0.0142298,0.289605,-0.237384,-0.0616066,-0.00161866,0.00945542,0.03228,-0.0410792,0.061931,0.0233457
1413393218455760384,-1.02012,0.221455,1.37651,0.589936,-0.0101387,-0.807329,0.00968032,0.300021,-0.23764,-0.0942112,-0.00167661,0.00928437,0.0317645,-0.0378211,0.0612277,0.0263613
1413393218505760512,-1.02218,0.206673,1.36982,0.590227,-0.0063551,-0.807205,0.00358035,0.298927,-0.228871,-0.080927,-0.00155367,0.00981209,0.0334771,-0.0440589,0.057573,0.0169631
1413393218555760384,-0.992851,0.189957,1.36876,0.590975,-0.00382054,-0.806679,-0.00191038,0.309828,-0.212599,-0.0820757,-0.00158559,0.00964452,0.0326836,-0.0431432,0.0612989,0.0219562
1413393218605760512,-0.971183,0.180886,1.36547,0.592284,-0.00115579,-0.805714,-0.00493752,0.314882,-0.241928,-0.0766813,-0.00161868,0.0094555,0.0322803,-0.0410604,0.061938,0.0232593
1413393218655760384,-0.980449,0.171189,1.35606,0.592642,0.000725051,-0.805429,-0.00768452,0.31876,-0.239245,-0.070721,-0.00155693,0.00985254,0.0338883,-0.0432251,0.0561289,0.0150531
1413393218705760512,-0.959065,0.156903,1.35461,0.592848,-4.7402e-06,-0.805274,-0.00805836,0.328214,-0.23919,-0.0579658,-0.0015527,0.00972868,0.0330877,-0.0436832,0.058536,0.018557
1413393218755760384,-0.928492,0.141836,1.35545,0.591485,0.000967252,-0.806269,-0.00871645,0.33529,-0.271065,-0.0544309,-0.00158559,0.00964463,0.0326839,-0.0430751,0.0612655,0.0218617
1413393218805760512,-0.923526,0.129982,1.35058,0.586921,0.000586067,-0.809607,-0.00773919,0.33859,-0.260454,-0.048596,-0.0015628,0.0100104,0.0343193,-0.0435539,0.0548878,0.014259
1413393218855760384,-0.909865,0.121015,1.34729,0.580074,-0.00299993,-0.814549,-0.0039461,0.336108,-0.262809,-0.041497,-0.00155367,0.00981237,0.0334782,-0.0435494,0.0565658,0.0150697
1413393218905760512,-0.891944,0.104238,1.34447,0.573298,-0.00575069,-0.819327,-0.000329588,0.327305,-0.280059,-0.0407183,-0.0015527,0.00972876,0.033088,-0.0435789,0.0583549,0.0182645
1413393218955760384,-0.874974,0.088418,1.34454,0.567171,-0.00738479,-0.823565,0.00181808,0.304378,-0.259923,-0.0150133,-0.00153344,0.0101211,0.0347214,-0.0419157,0.0569401,0.0134461
1413393219005760512,-0.867608,0.0802088,1.34106,0.563466,-0.00929462,-0.826079,0.0035366,0.279317,-0.249,0.0032624,-0.00155694,0.00985274,0.0338894,-0.0424732,0.0556623,0.0140571
1413393219055760384,-0.849728,0.0688006,1.34382,0.56157,-0.0103105,-0.827345,0.00571518,0.246087,-0.24988,0.023108,-0.00155367,0.00981242,0.0334784,-0.0434362,0.0564578,0.0148295
1413393219105760512,-0.845783,0.050265,1.34407,0.56201,-0.0103941,-0.827051,0.00498118,0.21315,-0.23354,0.049561,-0.00154441,0.0101399,0.0351108,-0.0398243,0.059056,0.0158451
1413393219155760384,-0.825601,0.0411404,1.34969,0.563148,-0.0106086,-0.826264,0.00638051,0.180838,-0.218652,0.0554229,-0.00156283,0.0100106,0.0343204,-0.0428592,0.0548392,0.0139099
1413393219205760512,-0.82488,0.0335136,1.34988,0.56416,-0.0103834,-0.82557,0.00716359,0.153568,-0.215203,0.069037,-0.00155695,0.00985277,0.0338897,-0.0423174,0.055708,0.014134
1413393219255760384,-0.825602,0.015684,1.35351,0.565874,-0.0103519,-0.824399,0.00677946,0.130597,-0.206862,0.0923226,-0.00161442,0.0101703,0.0354164,-0.0400305,0.0595512,0.0184442
1413393219305760512,-0.805489,0.00785003,1.3624,0.567014,-0.00933783,-0.823619,0.00775737,0.0994859,-0.185129,0.0993728,-0.00153346,0.0101214,0.0347226,-0.0409032,0.0575878,0.0133382
1413393219355760384,-0.800187,0.0014868,1.36738,0.56743,-0.00883402,-0.823327,0.00883168,0.0701767,-0.175292,0.109779,-0.00156284,0.0100107,0.0343207,-0.0427063,0.0548548,0.0138565
1413393219405760512,-0.807896,-0.0131109,1.37121,0.567902,-0.00953898,-0.822985,0.0095584,0.0502593,-0.169374,0.108788,-0.00164839,0.0102958,0.0357623,-0.0421969,0.0592816,0.0159227
1413393219455760384,-0.805569,-0.0186192,1.37372,0.569391,-0.00937548,-0.821955,0.00980944,0.0196847,-0.148064,0.0627285,-0.00154445,0.0101401,0.0351119,-0.0385783,0.0600791,0.0165883
1413393219505760512,-0.796448,-0.0247203,1.37907,0.570293,-0.00869297,-0.821332,0.0102006,-0.00818744,-0.136424,0.0229268,-0.00153347,0.0101215,0.0347229,-0.0406824,0.0577279,0.013296
1413393219555760384,-0.80666,-0.034008,1.38041,0.571584,-0.00835379,-0.820443,0.00981606,-0.0298849,-0.127688,-0.0027267,-0.00174142,0.010422,0.0360843,-0.0455154,0.0577771,0.012628
1413393219605760512,-0.812231,-0.0398807,1.37538,0.573767,-0.00841915,-0.81892,0.00956378,-0.0344279,-0.109236,-0.011618,-0.00161453,0.0101705,0.0354175,-0.0392232,0.0599039,0.0196436
1413393219655760384,-0.809903,-0.0435193,1.376,0.576054,-0.00807879,-0.817306,0.0103422,-0.047212,-0.100047,0.0171705,-0.00154448,0.0101402,0.0351122,-0.038366,0.0602356,0.0168751
1413393219705760512,-0.801691,-0.0517937,1.38795,0.577978,-0.00658395,-0.815976,0.00903811,-0.0652508,-0.0894295,0.0840873,-0.00178852,0.0105873,0.0364668,-0.0486261,0.0601416,0.00894077
1413393219755760384,-0.81755,-0.0554338,1.38671,0.581704,-0.00625477,-0.813335,0.00822366,-0.0803299,-0.076595,0.147891,-0.00164855,0.010296,0.0357633,-0.0423105,0.0588692,0.0150858
1413393219805760512,-0.823314,-0.0568839,1.39247,0.585427,-0.00465406,-0.810688,0.00631775,-0.0515387,-0.0623084,0.193608,-0.00161459,0.0101705,0.0354177,-0.0391699,0.0598044,0.0197772
1413393219855760384,-0.805089,-0.0611441,1.42028,0.5851,-0.00276683,-0.810938,0.00543685,-0.0600753,-0.0612663,0.311257,-0.00177404,0.0107846,0.0368783,-0.0487898,0.0653989,0.00216556
1413393219905760512,-0.827051,-0.0636148,1.4269,0.58734,-0.00292474,-0.809322,0.00459677,-0.0515195,-0.054653,0.32619,-0.00174165,0.0104221,0.0360853,-0.0466597,0.0567099,0.00931621
1413393219955760384,-0.828543,-0.0668552,1.44051,0.589133,-0.00168814,-0.808029,0.00306428,-0.0448627,-0.0445338,0.321191,-0.00164862,0.010296,0.0357636,-0.0424242,0.0587893,0.0145106
1413393220005760512,-0.808748,-0.069322,1.47086,0.589082,4.75861e-05,-0.80807,0.00247681,-0.0522461,-0.0564635,0.290555,-0.00177298,0.0109141,0.0372775,-0.0509757,0.0697935,-0.00253273
1413393220055760384,-0.82253,-0.0731265,1.47673,0.591058,-0.000451838,-0.806627,0.0019042,-0.0221316,-0.0523398,0.233376,-0.00178876,0.0105875,0.0364677,-0.0499703,0.0607598,0.00529542
1413393220105760512,-0.83382,-0.0727399,1.48197,0.592259,-0.00104766,-0.805744,0.00211014,-0.00690363,-0.0401256,0.207067,-0.00174172,0.0104222,0.0360855,-0.0468582,0.0564954,0.0086768
1413393220155760384,-0.804253,-0.081525,1.50795,0.591613,0.000689877,-0.806222,0.000921553,-0.0178971,-0.0669391,0.197649,-0.00178356,0.0110342,0.037663,-0.056291,0.0759886,-0.00242452
1413393220205760512,-0.818491,-0.0813162,1.51345,0.592647,0.000862656,-0.805462,0.000518084,-0.0095181,-0.0654484,0.219425,-0.00177421,0.0107849,0.0368793,-0.0493356,0.067636,-0.00199052
1413393220255760384,-0.823675,-0.0831266,1.5197,0.593798,-0.000272923,-0.804614,0.00112918,0.00804664,-0.0449747,0.220923,-0.00178883,0.0105876,0.036468,-0.0500647,0.061085,0.00499172
1413393220305760512,-0.803075,-0.0994683,1.54184,0.593452,0.000950412,-0.804868,-0.00147192,-0.00240715,-0.0836342,0.23493,-0.00175825,0.0111211,0.0380517,-0.0660423,0.0838516,0.00314427
1413393220355760384,-0.814352,-0.0919023,1.55052,0.593985,0.00113524,-0.804476,-1.56471e-05,0.00812035,-0.0802654,0.23508,-0.00177311,0.0109144,0.0372786,-0.0513998,0.0726424,-0.00574173
1413393220405760512,-0.817176,-0.0950643,1.55896,0.594325,0.000481796,-0.804225,8.54034e-05,0.0245488,-0.0685263,0.247444,-0.00177426,0.010785,0.0368796,-0.049281,0.0679649,-0.00247159
1413393220455760384,-0.80645,-0.11525,1.57711,0.593171,0.000161951,-0.805075,-0.00179016,0.0264314,-0.103481,0.254393,-0.00175795,0.0112308,0.0383843,-0.0754813,0.0912534,0.00965737
1413393220505760512,-0.802992,-0.109522,1.58917,0.591291,0.000624516,-0.806458,-0.000206741,0.0335657,-0.10013,0.231149,-0.00178367,0.0110345,0.037664,-0.0574512,0.0793429,-0.00219993
1413393220555760384,-0.808681,-0.109205,1.59571,0.589885,-0.000373688,-0.807487,0.000780743,0.0482359,-0.0850493,0.181394,-0.00177314,0.0109145,0.0372788,-0.0514237,0.0729395,-0.00588546
1413393220605760512,-0.802847,-0.129554,1.60946,0.588486,-0.00117354,-0.808506,-0.00096252,0.0379934,-0.116813,0.139656,-0.00173953,0.0113819,0.0386981,-0.0810238,0.0972596,0.0131813
1413393220655760384,-0.794236,-0.133621,1.61403,0.589288,-0.000875521,-0.807923,-0.000301827,0.0387841,-0.11701,0.0709815,-0.00175832,0.0111214,0.0380528,-0.0685774,0.088198,0.00762013
1413393220705760512,-0.794813,-0.129686,1.61402,0.589985,-0.00146931,-0.807412,0.00119811,0.0479249,-0.0906597,0.00252191,-0.0017837,0.0110345,0.0376643,-0.0576456,0.0797923,-0.00170347
1413393220755760384,-0.796726,-0.145242,1.61891,0.588917,-0.0035484,-0.808183,0.00238082,0.0417461,-0.132852,-0.0269834,-0.0016901,0.0114864,0.0390453,-0.0819425,0.107077,0.013689
1413393220805760512,-0.792306,-0.154194,1.61428,0.587118,-0.00633968,-0.809452,0.00636912,0.0531448,-0.119327,-0.0291628,-0.00175801,0.011231,0.0383853,-0.0784975,0.0957524,0.0148229
1413393220855760384,-0.784633,-0.155607,1.61244,0.585815,-0.00967703,-0.810316,0.0107138,0.057921,-0.0809008,0.00813498,-0.00175834,0.0111214,0.038053,-0.0689238,0.0888529,0.00850895
1413393220905760512,-0.7948,-0.160089,1.6192,0.58397,-0.0107564,-0.811612,0.0122413,0.0631032,-0.117072,0.0761533,-0.00166585,0.0115391,0.0393863,-0.0812522,0.11061,0.0132897
1413393220955760384,-0.786121,-0.168218,1.6249,0.583108,-0.0119451,-0.812193,0.0136183,0.0557058,-0.0820763,0.178783,-0.00173957,0.0113822,0.0386991,-0.0829339,0.100804,0.0151138
1413393221005760512,-0.781313,-0.171691,1.63104,0.584068,-0.0130796,-0.811503,0.0125293,0.0514247,-0.0372534,0.197012,-0.00175803,0.0112311,0.0383856,-0.0787791,0.0962896,0.0153003
1413393221055760384,-0.789097,-0.172411,1.64484,0.583015,-0.012732,-0.812285,0.0111708,0.040429,-0.0637856,0.232437,-0.00166859,0.0116096,0.0396868,-0.0836745,0.111044,0.0165341
1413393221105760512,-0.779935,-0.175966,1.65881,0.582021,-0.012782,-0.813,0.0109518,0.0336528,-0.0402871,0.245928,-0.00169009,0.0114867,0.0390463,-0.0820969,0.111692,0.0125853
1413393221155760384,-0.777398,-0.177062,1.66985,0.581931,-0.0137581,-0.81306,0.0100008,0.0409788,-0.00543902,0.260843,-0.00173958,0.0113823,0.0386993,-0.0829758,0.101067,0.0148199
1413393221205760512,-0.783114,-0.17807,1.6834,0.580447,-0.0132976,-0.814151,0.00794164,0.0164437,-0.0286287,0.266813,-0.00171125,0.0117175,0.0399596,-0.0864066,0.110467,0.0199155
1413393221255760384,-0.782798,-0.177803,1.69707,0.579137,-0.0130725,-0.815091,0.00749137,0.0104507,-0.00785533,0.260633,-0.00166582,0.0115393,0.0393873,-0.0809471,0.113268,0.0125228
1413393221305760512,-0.77577,-0.179132,1.7118,0.577497,-0.0125529,-0.816282,0.00482906,0.00467828,0.0170112,0.246935,-0.00169009,0.0114867,0.0390466,-0.0819311,0.112452,0.012378
1413393221355760384,-0.777964,-0.178578,1.72547,0.575927,-0.0126325,-0.817393,0.00416395,-0.0145193,0.00496028,0.284618,-0.00173837,0.0118266,0.0402694,-0.0868729,0.109096,0.0199637
1413393221405760512,-0.785251,-0.177401,1.73684,0.574659,-0.0118057,-0.818304,0.00270909,-0.0282177,0.0166728,0.284663,-0.00166858,0.0116098,0.0396878,-0.0841406,0.111596,0.0189887
1413393221455760384,-0.785983,-0.175599,1.75142,0.574165,-0.0106189,-0.818671,0.000306081,-0.0444087,0.0301068,0.261482,-0.00166581,0.0115394,0.0393876,-0.0809387,0.113232,0.0128345
1413393221505760512,-0.779008,-0.174322,1.76808,0.573315,-0.00948109,-0.81928,-0.00083472,-0.0538848,0.0226485,0.205928,-0.00172337,0.0119988,0.0406094,-0.0844637,0.110178,0.0181028
1413393221555760384,-0.790397,-0.173646,1.77361,0.572844,-0.0078018,-0.819619,-0.00376046,-0.0637553,0.0289982,0.155537,-0.00171128,0.0117178,0.0399606,-0.0870856,0.109821,0.0226619
1413393221605760512,-0.796432,-0.172367,1.77925,0.57309,-0.00654299,-0.819446,-0.00580695,-0.0915748,0.0269343,0.134466,-0.00166858,0.0116099,0.0396881,-0.0842254,0.111477,0.0195461
1413393221655760384,-0.790957,-0.170897,1.79212,0.573445,-0.00507711,-0.819202,-0.00663007,-0.108598,0.00928875,0.143766,-0.0017233,0.0121034,0.0409417,-0.0794006,0.111979,0.0158745
1413393221705760512,-0.800492,-0.170635,1.7973,0.576669,-0.00455607,-0.816934,-0.00717207,-0.115241,0.0175197,0.15953,-0.00173843,0.0118269,0.0402704,-0.0868918,0.108187,0.0202227
1413393221755760384,-0.810434,-0.17004,1.80306,0.580418,-0.00475812,-0.814279,-0.006559,-0.119095,0.00796883,0.154775,-0.0017113,0.0117179,0.0399608,-0.0870613,0.109748,0.0227642
1413393221805760512,-0.808891,-0.170679,1.81469,0.583535,-0.00362412,-0.812059,-0.00582385,-0.123462,-0.0143717,0.156548,-0.00170734,0.0121868,0.0413169,-0.0742902,0.115629,0.0130021
1413393221855760384,-0.814799,-0.169719,1.82255,0.585643,-0.00274153,-0.810543,-0.00585521,-0.119207,0.00422735,0.155301,-0.00172342,0.0119992,0.0406105,-0.0834922,0.11024,0.0162883
1413393221905760512,-0.824306,-0.170406,1.82892,0.586932,-0.00307122,-0.809617,-0.00481079,-0.115365,-0.014682,0.149462,-0.00173846,0.011827,0.0402707,-0.0867903,0.108109,0.0199436
1413393221955760384,-0.829336,-0.171349,1.83685,0.588366,-0.0026391,-0.808585,-0.00308732,-0.116403,-0.0251267,0.120047,-0.00165951,0.012267,0.0415651,-0.0706359,0.117901,0.00855082
1413393222005760512,-0.832235,-0.172395,1.8425,0.588465,-0.00266269,-0.808515,-0.00246923,-0.109786,-0.00540494,0.0746623,-0.00172334,0.0121038,0.0409428,-0.0777217,0.112681,0.0140777
1413393222055760384,-0.837653,-0.172179,1.8455,0.589065,-0.00258717,-0.808081,-0.00138347,-0.105013,-0.0189654,0.0232771,-0.00172343,0.0119993,0.0406108,-0.083276,0.110323,0.0159953
1413393222105760512,-0.843194,-0.176134,1.84405,0.589699,-0.00211426,-0.807621,-0.000246104,-0.113437,-0.0391395,-0.0477724,-0.00162846,0.0123741,0.0418719,-0.0675726,0.118197,0.0037277
1413393222155760384,-0.849153,-0.177576,1.83952,0.589914,-0.00150901,-0.807465,-1.55278e-05,-0.110258,-0.023081,-0.10211,-0.00170736,0.0121872,0.041318,-0.0725974,0.116911,0.0118595
1413393222205760512,-0.853857,-0.177008,1.8346,0.589664,-0.00101977,-0.807648,0.000496545,-0.101832,-0.0262181,-0.156936,-0.00172336,0.0121039,0.0409431,-0.0774704,0.112756,0.0139771
1413393222255760384,-0.856901,-0.183376,1.82565,0.588375,-0.000530529,-0.808588,0.000983042,-0.0978364,-0.0465647,-0.216684,-0.00161139,0.0124949,0.0421607,-0.066987,0.117497,-0.000265594
1413393222305760512,-0.866802,-0.181886,1.81121,0.586176,0.000247178,-0.810184,0.00090826,-0.0933197,-0.0293273,-0.248653,-0.00165949,0.0122674,0.0415662,-0.0692474,0.118832,0.00637352
1413393222355760384,-0.868539,-0.184042,1.79945,0.582199,0.000161658,-0.813046,0.00105167,-0.0912691,-0.0381125,-0.244774,-0.00170738,0.0121873,0.0413183,-0.0724134,0.117069,0.011819
1413393222405760512,-0.868471,-0.188787,1.79043,0.577797,0.000792295,-0.816178,0.00170309,-0.103549,-0.0526507,-0.231017,-0.00162245,0.0125894,0.0424005,-0.0656619,0.116409,-0.00167051
1413393222455760384,-0.879226,-0.189625,1.7776,0.574596,0.00192032,-0.818435,0.000235755,-0.109951,-0.0424528,-0.205874,-0.00162842,0.0123744,0.0418729,-0.0663653,0.118242,0.000340777
1413393222505760512,-0.88735,-0.190542,1.76754,0.572008,0.00206746,-0.820245,0.00127699,-0.126043,-0.0539244,-0.172315,-0.00165948,0.0122674,0.0415665,-0.0691143,0.118842,0.0058396
1413393222555760384,-0.881068,-0.19718,1.76552,0.570613,0.000825411,-0.821209,0.00413655,-0.136218,-0.0615075,-0.111917,-0.00161703,0.0126951,0.0426462,-0.0653071,0.115967,-0.00396396
1413393222605760512,-0.897049,-0.200075,1.75794,0.569438,0.000941847,-0.822022,0.00432166,-0.163826,-0.0516166,-0.0797798,-0.00161133,0.0124952,0.0421617,-0.0662351,0.11685,-0.00345546
1413393222655760384,-0.907504,-0.200535,1.75358,0.568303,0.000460124,-0.822801,0.00556561,-0.187277,-0.0561981,-0.0181072,-0.0016284,0.0123745,0.0418732,-0.0661999,0.118094,-0.000256483
1413393222705760512,-0.906155,-0.20518,1.75834,0.568236,0.00229723,-0.822849,0.00475693,-0.214396,-0.0588752,0.031609,-0.00161193,0.012783,0.042907,-0.0650483,0.116967,-0.00659185
1413393222755760384,-0.923792,-0.207444,1.75799,0.566838,0.00163558,-0.823805,0.0061804,-0.236402,-0.0531705,0.0642596,-0.00162243,0.0125897,0.0424015,-0.0649689,0.11556,-0.00303468
1413393222805760512,-0.938754,-0.21094,1.76121,0.565043,0.00159065,-0.825033,0.00674983,-0.261227,-0.0560366,0.11415,-0.00161132,0.0124953,0.042162,-0.0661362,0.116734,-0.00368646
1413393222855760384,-0.941001,-0.213089,1.7718,0.562731,0.00226588,-0.826602,0.00762905,-0.281208,-0.057132,0.142013,-0.00159017,0.0129133,0.0432064,-0.0653202,0.118801,-0.00917147
1413393222905760512,-0.958292,-0.216189,1.77808,0.561898,0.00214364,-0.827152,0.00924022,-0.304995,-0.0535873,0.178712,-0.00161701,0.0126955,0.0426471,-0.0648941,0.115655,-0.00461194
1413393222955760384,-0.979464,-0.218155,1.78625,0.560295,0.00292182,-0.828228,0.010023,-0.335119,-0.051842,0.222278,-0.00162242,0.0125898,0.0424018,-0.0648585,0.115462,-0.00295553
1413393223005760512,-0.987226,-0.223153,1.8029,0.561093,0.00454303,-0.827684,0.00963484,-0.356992,-0.0527812,0.232439,-0.0015791,0.0129742,0.0434896,-0.0662536,0.120942,-0.0111035
1413393223055760384,-1.00933,-0.22422,1.81244,0.563333,0.00553209,-0.826145,0.0105364,-0.381259,-0.051448,0.248974,-0.00161192,0.0127833,0.0429079,-0.0648028,0.117404,-0.00791468
1413393223105760512,-1.02932,-0.226257,1.82385,0.565213,0.00590813,-0.824843,0.0116072,-0.400366,-0.038591,0.248763,-0.00161701,0.0126956,0.0426473,-0.0648593,0.11569,-0.00478554
1413393223155760384,-1.04665,-0.231495,1.84065,0.566296,0.00748308,-0.824105,0.0102298,-0.433598,-0.0454685,0.254798,-0.0015711,0.0130976,0.0437797,-0.0703426,0.123573,-0.0117988
1413393223205760512,-1.07026,-0.231235,1.85048,0.568272,0.00973995,-0.822733,0.00909804,-0.447908,-0.0500914,0.256466,-0.00159015,0.0129136,0.0432073,-0.0651382,0.119825,-0.0110509
1413393223255760384,-1.0939,-0.233045,1.86035,0.569418,0.0109306,-0.821936,0.00803484,-0.45863,-0.0395764,0.217297,-0.00161192,0.0127834,0.0429081,-0.0647569,0.117537,-0.00815931
1413393223305760512,-1.11687,-0.239959,1.87498,0.570618,0.0112666,-0.821102,0.00776885,-0.481263,-0.0634572,0.18792,-0.00155117,0.0131609,0.0440187,-0.0723636,0.126107,-0.0115786
1413393223355760384,-1.13912,-0.241394,1.88061,0.571854,0.0121525,-0.820232,0.00738862,-0.495204,-0.0652934,0.100437,-0.00157907,0.0129745,0.0434906,-0.0662583,0.122158,-0.0125138
1413393223405760512,-1.16563,-0.242374,1.88162,0.573642,0.01261,-0.818976,0.00740564,-0.499042,-0.0666313,-0.0013047,-0.00159014,0.0129137,0.0432076,-0.0650802,0.119941,-0.0112885
1413393223455760384,-1.19254,-0.250392,1.88235,0.575253,0.0130035,-0.817851,0.00589414,-0.514506,-0.0790003,-0.110395,-0.00154229,0.0132011,0.0442702,-0.0742504,0.127987,-0.0105339
1413393223505760512,-1.21598,-0.253418,1.87431,0.578011,0.0136794,-0.815898,0.00528538,-0.519556,-0.0805785,-0.212921,-0.00157108,0.0130979,0.0437807,-0.0710072,0.124727,-0.0127519
1413393223555760384,-1.24087,-0.256028,1.85908,0.581064,0.0130609,-0.813735,0.00552012,-0.521946,-0.0853101,-0.299042,-0.00157907,0.0129745,0.0434909,-0.0662857,0.122259,-0.012615
1413393223605760512,-1.26742,-0.263541,1.84722,0.583121,0.0126809,-0.812276,0.0041097,-0.513972,-0.0926933,-0.361485,-0.00149096,0.0132637,0.0445438,-0.0767099,0.130464,-0.0115735
1413393223655760384,-1.29505,-0.267936,1.82668,0.585474,0.0121116,-0.810596,0.00273169,-0.508464,-0.0966863,-0.39949,-0.00155115,0.0131611,0.0440197,-0.0730708,0.127054,-0.0117582
1413393223705760512,-1.31842,-0.27152,1.8063,0.586552,0.0106228,-0.80984,0.00208841,-0.499742,-0.0999246,-0.379674,-0.00157108,0.0130979,0.0437809,-0.0711161,0.124822,-0.0128584
1413393223755760384,-1.33818,-0.280196,1.79374,0.586889,0.00939542,-0.809613,0.000608222,-0.503158,-0.116677,-0.300618,-0.00145775,0.0133506,0.0447787,-0.0783085,0.131154,-0.0127861
1413393223805760512,-1.36991,-0.285001,1.77553,0.588336,0.00741582,-0.808583,-8.42637e-05,-0.489822,-0.132763,-0.250164,-0.00154228,0.0132013,0.0442711,-0.0747069,0.128783,-0.0100048
1413393223855760384,-1.39325,-0.291226,1.76533,0.587272,0.0058891,-0.809368,-0.0010988,-0.465921,-0.140429,-0.158837,-0.00155115,0.0131612,0.0440199,-0.0730937,0.127137,-0.0116532
1413393223905760512,-1.41085,-0.302115,1.76386,0.586932,0.00524943,-0.809608,-0.00417852,-0.488252,-0.152283,-0.0839616,-0.00141606,0.0134719,0.0450108,-0.08273,0.132059,-0.0115949
1413393223955760384,-1.43885,-0.307907,1.75842,0.586816,0.00388239,-0.809694,-0.00538308,-0.480397,-0.170802,-0.0298777,-0.0014909,0.0132639,0.0445447,-0.0770684,0.131277,-0.0119875
1413393224005760512,-1.46461,-0.315611,1.75586,0.58808,0.00235513,-0.808777,-0.0060467,-0.471584,-0.176326,-2.90004e-05,-0.00154227,0.0132013,0.0442714,-0.0747117,0.128832,-0.00993158
1413393224055760384,-1.48271,-0.328646,1.76374,0.586605,0.000330511,-0.809849,-0.00635042,-0.479767,-0.18992,0.00361979,-0.00136788,0.0136238,0.0453541,-0.0886521,0.132024,-0.0105745
1413393224105760512,-1.50604,-0.337051,1.76002,0.588087,-0.00151355,-0.808771,-0.00641706,-0.465018,-0.205578,-0.0529652,-0.00145767,0.0133508,0.0447796,-0.0786363,0.131391,-0.0139332
1413393224155760384,-1.53245,-0.345936,1.75287,0.588866,-0.00238196,-0.808194,-0.00730065,-0.448528,-0.208974,-0.0868457,-0.00149087,0.0132639,0.044545,-0.0771184,0.131362,-0.0122007
1413393224205760512,-1.55495,-0.357317,1.75756,0.588154,-0.00237683,-0.808704,-0.00818461,-0.442849,-0.222792,-0.135022,-0.00136009,0.0138501,0.0456687,-0.0948782,0.132961,-0.0170476
1413393224255760384,-1.57368,-0.37068,1.74302,0.589947,-0.00276888,-0.807375,-0.0100826,-0.433873,-0.229218,-0.18228,-0.00141595,0.0134721,0.0450117,-0.0834545,0.132391,-0.011658
1413393224305760512,-1.59425,-0.380677,1.73088,0.591851,-0.00358055,-0.805978,-0.0100025,-0.416418,-0.235231,-0.255628,-0.00145763,0.0133508,0.0447798,-0.0786411,0.131272,-0.0140552
1413393224355760384,-1.61116,-0.389524,1.7319,0.590783,-0.00280516,-0.806764,-0.0099422,-0.427891,-0.245416,-0.28192,-0.00133285,0.0141637,0.0459695,-0.0942648,0.136553,-0.0326052
1413393224405760512,-1.6375,-0.406868,1.70592,0.591851,-0.00602376,-0.805938,-0.0118672,-0.421027,-0.240165,-0.338093,-0.00136775,0.0136241,0.0453551,-0.0894228,0.131872,-0.0103604
1413393224455760384,-1.65768,-0.418829,1.68286,0.593639,-0.00997939,-0.804578,-0.0122002,-0.410248,-0.252317,-0.392988,-0.00141591,0.0134722,0.0450119,-0.0835015,0.132468,-0.0114678
1413393224505760512,-1.65408,-0.430398,1.68574,0.591974,-0.0128782,-0.805762,-0.0122502,-0.411342,-0.258109,-0.422143,-0.00127973,0.0143166,0.0462339,-0.0832056,0.133254,-0.0405652
1413393224555760384,-1.70309,-0.442382,1.65089,0.592347,-0.0212485,-0.805295,-0.0131867,-0.3999,-0.25237,-0.452578,-0.00135996,0.0138504,0.0456697,-0.0953886,0.130721,-0.0210556
1413393224605760512,-1.71765,-0.456949,1.62125,0.5944,-0.0294637,-0.803499,-0.014491,-0.375533,-0.247338,-0.475994,-0.0013677,0.0136241,0.0453553,-0.0894373,0.131636,-0.0105554
1413393224655760384,-1.7225,-0.471174,1.61353,0.592842,-0.0363942,-0.804337,-0.0160036,-0.384622,-0.242101,-0.433571,-0.00119291,0.014331,0.046482,-0.0671909,0.120676,-0.0394186
1413393224705760512,-1.753,-0.477684,1.59144,0.590585,-0.0451869,-0.805516,-0.0176449,-0.35089,-0.243254,-0.414732,-0.00133273,0.0141642,0.0459706,-0.093513,0.132423,-0.0422793
1413393224755760384,-1.77609,-0.490511,1.56482,0.589565,-0.054841,-0.805609,-0.0200204,-0.323687,-0.222179,-0.395581,-0.00135993,0.0138505,0.0456699,-0.0954237,0.129918,-0.0226063
1413393224805760512,-1.7828,-0.509722,1.53925,0.588431,-0.0626596,-0.805725,-0.0251089,-0.301307,-0.198785,-0.404115,-0.0012669,0.014147,0.0466769,-0.0478118,0.0980451,-0.0303647
1413393224855760384,-1.78143,-0.513931,1.53872,0.584949,-0.0702953,-0.807572,-0.0268577,-0.294303,-0.206034,-0.327313,-0.00127962,0.0143171,0.046235,-0.0797879,0.129717,-0.0482808
1413393224905760512,-1.81607,-0.519639,1.52013,0.583702,-0.0763304,-0.807787,-0.0307776,-0.295724,-0.186344,-0.250928,-0.00133271,0.0141644,0.0459709,-0.0931462,0.13165,-0.0440248
1413393224955760384,-1.84784,-0.531638,1.47683,0.585248,-0.0828901,-0.805855,-0.0348086,-0.251336,-0.153182,-0.229512,-0.00141418,0.0138905,0.0467829,-0.0329538,0.0834861,-0.0216646
1413393225005760512,-1.83159,-0.543487,1.49529,0.581285,-0.085499,-0.808287,-0.0383522,-0.276294,-0.172103,-0.128576,-0.00119278,0.0143316,0.0464831,-0.0612088,0.119403,-0.0388356
1413393225055760384,-1.83861,-0.548703,1.49946,0.578444,-0.0864946,-0.81005,-0.041716,-0.299054,-0.153414,-0.0905939,-0.00127959,0.0143173,0.0462353,-0.0789195,0.129506,-0.0483296
1413393225105760512,-1.88436,-0.554948,1.45578,0.581987,-0.090161,-0.806916,-0.0452761,-0.252592,-0.112664,-0.0592905,-0.00158798,0.0137865,0.0469285,-0.0296823,0.0809574,-0.01347
1413393225155760384,-1.87856,-0.566438,1.46909,0.580254,-0.0911419,-0.807878,-0.0482912,-0.270744,-0.131218,-0.0639481,-0.00126691,0.0141474,0.0466779,-0.0401015,0.09794,-0.0211192
1413393225205760512,-1.89073,-0.571892,1.48351,0.576759,-0.0919193,-0.810262,-0.0487472,-0.311307,-0.124401,-0.0295992,-0.00119274,0.0143318,0.0464834,-0.060239,0.119588,-0.0375947
1413393225255760384,-1.91902,-0.571527,1.44728,0.580383,-0.0937318,-0.807429,-0.0492857,-0.234123,-0.092682,-0.0469397,-0.00171194,0.0138,0.047061,-0.0294138,0.0831196,-0.00786559
1413393225305760512,-1.93612,-0.575079,1.44302,0.579358,-0.0958221,-0.807849,-0.0504182,-0.2408,-0.0947409,-0.0716372,-0.00141435,0.0138908,0.0467838,-0.0261073,0.0830075,-0.0118662
1413393225355760384,-1.93192,-0.587089,1.45899,0.577139,-0.0982241,-0.808938,-0.053688,-0.257736,-0.0727093,-0.0353819,-0.0012669,0.0141476,0.0466782,-0.0390171,0.0980135,-0.0193482
1413393225405760512,-1.95124,-0.581277,1.44327,0.578196,-0.104089,-0.807491,-0.0530408,-0.227614,-0.0454557,-0.0218554,-0.00184686,0.0138371,0.0471813,-0.0322922,0.0900812,-0.00909498
1413393225455760384,-1.96759,-0.584645,1.43734,0.577607,-0.111068,-0.806834,-0.055257,-0.237519,-0.0344175,-0.0123463,-0.0015883,0.0137866,0.0469294,-0.0267258,0.0804078,-0.00837619
1413393225505760512,-1.98375,-0.584659,1.43801,0.577044,-0.120267,-0.80574,-0.0577819,-0.231033,-0.00322496,-0.000900977,-0.00141439,0.0138908,0.0467841,-0.0255691,0.082731,-0.0111788
1413393225555760384,-1.97596,-0.582852,1.45419,0.573926,-0.129332,-0.806369,-0.0604259,-0.227804,0.0143111,0.0233401,-0.00193197,0.013998,0.0472889,-0.0403732,0.105596,-0.0114523
1413393225605760512,-1.99846,-0.583258,1.44113,0.574706,-0.141418,-0.803412,-0.0651458,-0.22328,0.0453861,0.0432717,-0.00171233,0.0138,0.0470617,-0.0292846,0.0832838,-0.00698924
1413393225655760384,-2.01142,-0.580054,1.44125,0.574863,-0.153513,-0.80059,-0.0708694,-0.203205,0.0840458,0.0472947,-0.00158841,0.0137866,0.0469295,-0.0268254,0.0804297,-0.0084411
1413393225705760512,-2.01653,-0.569225,1.46728,0.570819,-0.164214,-0.80067,-0.0782788,-0.234669,0.104859,0.0879956,-0.00195777,0.014127,0.0474905,-0.0430406,0.118586,-0.0113739
1413393225755760384,-2.02866,-0.568483,1.45503,0.572524,-0.175437,-0.795996,-0.0884831,-0.200061,0.121686,0.0781057,-0.00184733,0.013837,0.0471819,-0.0331858,0.090981,-0.0102871
1413393225805760512,-2.03632,-0.562272,1.45428,0.572869,-0.185949,-0.792065,-0.0993863,-0.155879,0.160169,0.0956032,-0.00171247,0.0138,0.0470618,-0.0293615,0.0834404,-0.00707099
1413393225855760384,-2.04928,-0.549527,1.48889,0.566407,-0.194045,-0.792709,-0.11464,-0.205609,0.154622,0.0556507,-0.00192488,0.0142254,0.0477808,-0.0417829,0.125835,0.0018842
1413393225905760512,-2.04945,-0.545232,1.47586,0.568007,-0.204336,-0.787121,-0.126709,-0.165566,0.163235,-0.0481229,-0.00193248,0.0139979,0.0472892,-0.0419834,0.107526,-0.0130733
1413393225955760384,-2.05916,-0.536331,1.45678,0.567824,-0.213868,-0.782467,-0.139935,-0.13303,0.177549,-0.168621,-0.0018475,0.013837,0.0471819,-0.0332729,0.091155,-0.0104049
1413393226005760512,-2.09313,-0.521676,1.47958,0.560524,-0.220534,-0.782912,-0.15565,-0.209058,0.152484,-0.218007,-0.00185003,0.0144103,0.0481005,-0.0456219,0.133295,0.015868
1413393226055760384,-2.08659,-0.516952,1.45537,0.562153,-0.232159,-0.77652,-0.164632,-0.182452,0.154502,-0.248127,-0.00195826,0.0141269,0.0474908,-0.0441656,0.121209,-0.0124437
1413393226105760512,-2.08121,-0.512894,1.4365,0.562892,-0.243519,-0.771155,-0.170799,-0.150341,0.13921,-0.250409,-0.00193267,0.0139979,0.0472892,-0.0422207,0.10792,-0.0131627
1413393226155760384,-2.13306,-0.500904,1.44763,0.55678,-0.252758,-0.770487,-0.180164,-0.222193,0.113798,-0.193942,-0.00184272,0.0145588,0.0483831,-0.0471073,0.135287,0.0285732
1413393226205760512,-2.11981,-0.500343,1.43103,0.557997,-0.26409,-0.764899,-0.183917,-0.198697,0.0973925,-0.143075,-0.00192531,0.0142252,0.0477813,-0.0425816,0.129516,0.00248278
1413393226255760384,-2.12282,-0.491082,1.41663,0.558519,-0.274409,-0.760713,-0.184586,-0.18651,0.118286,-0.0788701,-0.00195843,0.0141269,0.0474909,-0.0442223,0.121617,-0.0124122
1413393226305760512,-2.17398,-0.484431,1.43411,0.552231,-0.280872,-0.761215,-0.191583,-0.226162,0.0908025,-0.04283,-0.00183286,0.0146891,0.048613,-0.049077,0.137317,0.0390144
1413393226355760384,-2.17015,-0.482385,1.42888,0.551413,-0.289925,-0.758755,-0.190207,-0.226126,0.091468,-0.0134413,-0.00185034,0.0144102,0.0481011,-0.0467719,0.137561,0.0176445
1413393226405760512,-2.16016,-0.479394,1.42047,0.549942,-0.296577,-0.757461,-0.189364,-0.189402,0.109223,-0.0379547,-0.00192545,0.0142252,0.0477814,-0.0426705,0.130196,0.00287206
1413393226455760384,-2.20751,-0.470766,1.43432,0.54173,-0.30139,-0.760846,-0.19185,-0.235222,0.094476,-0.0454539,-0.00183865,0.01481,0.0488189,-0.0483759,0.140721,0.0445016
1413393226505760512,-2.21333,-0.467347,1.42543,0.53906,-0.306759,-0.760906,-0.190617,-0.237388,0.107343,-0.105242,-0.00184297,0.0145588,0.0483838,-0.048048,0.139424,0.0309991
1413393226555760384,-2.21429,-0.461219,1.41513,0.537963,-0.310964,-0.760512,-0.188465,-0.227616,0.128716,-0.153899,-0.00185044,0.0144102,0.0481013,-0.0469035,0.138188,0.0180393
1413393226605760512,-2.2427,-0.454519,1.41829,0.533021,-0.313432,-0.762662,-0.189725,-0.250354,0.135625,-0.170764,-0.00182666,0.0149104,0.0490267,-0.0466412,0.144179,0.0467118
1413393226655760384,-2.25753,-0.446973,1.40492,0.532372,-0.315323,-0.762206,-0.190247,-0.253801,0.157795,-0.155774,-0.00183305,0.0146892,0.0486138,-0.0496049,0.140623,0.0412867
1413393226705760512,-2.26192,-0.438812,1.39383,0.533524,-0.312808,-0.761298,-0.194755,-0.258966,0.185806,-0.155754,-0.00184305,0.0145588,0.0483841,-0.0480454,0.139857,0.0312993
1413393226755760384,-2.28385,-0.428721,1.39672,0.532984,-0.309251,-0.761337,-0.20164,-0.280087,0.200061,-0.125653,-0.00179959,0.0149854,0.0492102,-0.0428741,0.148915,0.0463962
1413393226805760512,-2.29824,-0.419178,1.38745,0.533586,-0.306002,-0.760911,-0.206552,-0.297335,0.195332,-0.105307,-0.00183881,0.0148103,0.0488197,-0.0481032,0.143104,0.0459264
1413393226855760384,-2.31236,-0.408567,1.37868,0.534558,-0.303209,-0.760578,-0.209365,-0.295069,0.205295,-0.123336,-0.00183311,0.0146892,0.048614,-0.0495841,0.140916,0.0415138
1413393226905760512,-2.32972,-0.398277,1.38175,0.532701,-0.29979,-0.762031,-0.213693,-0.325449,0.198361,-0.104913,-0.00175705,0.0150792,0.04942,-0.0378008,0.154132,0.0434584
1413393226955760384,-2.34422,-0.389894,1.37437,0.533055,-0.298092,-0.762061,-0.215075,-0.335852,0.190741,-0.0795535,-0.00182678,0.0149107,0.0490275,-0.0459483,0.145752,0.0472149
1413393227005760512,-2.36101,-0.379481,1.36837,0.533413,-0.296324,-0.762364,-0.215556,-0.337208,0.190377,-0.0722555,-0.00183886,0.0148103,0.0488199,-0.0479813,0.143353,0.0460362
1413393227055760384,-2.3822,-0.369595,1.37062,0.533274,-0.295689,-0.762667,-0.2157,-0.375857,0.181149,-0.0667191,-0.00170686,0.0151201,0.0496145,-0.0341941,0.156809,0.0394981
1413393227105760512,-2.3997,-0.361932,1.36462,0.535575,-0.295403,-0.761339,-0.215081,-0.373831,0.17105,-0.0624822,-0.00179966,0.0149857,0.049211,-0.0418201,0.150052,0.046044
1413393227155760384,-2.41533,-0.353766,1.36207,0.537738,-0.296202,-0.760199,-0.212606,-0.372976,0.167661,-0.041791,-0.00182681,0.0149108,0.0490277,-0.04581,0.145855,0.0472048
1413393227205760512,-2.44201,-0.343672,1.36341,0.538757,-0.296878,-0.759785,-0.210552,-0.40152,0.159404,-0.029428,-0.00169261,0.0151943,0.0498011,-0.0332999,0.15752,0.0351192
1413393227255760384,-2.46002,-0.33713,1.36065,0.541655,-0.29919,-0.757809,-0.206933,-0.394569,0.158656,-0.00298841,-0.00175706,0.0150795,0.0494208,-0.0364382,0.154801,0.0418448
1413393227305760512,-2.47625,-0.329658,1.35902,0.542261,-0.300678,-0.757411,-0.204634,-0.381534,0.156091,-0.00807511,-0.00179967,0.0149858,0.0492112,-0.041639,0.150157,0.0459599
1413393227355760384,-2.50338,-0.31998,1.36095,0.542688,-0.30187,-0.756886,-0.203686,-0.400175,0.152632,-0.00405868,-0.00171028,0.0152745,0.0499584,-0.0362708,0.15686,0.0324764
1413393227405760512,-2.52042,-0.313481,1.3602,0.542461,-0.303347,-0.756843,-0.202251,-0.390887,0.158319,0.00101635,-0.00170683,0.0151204,0.0496153,-0.033059,0.156698,0.0372727
1413393227455760384,-2.53798,-0.30605,1.35965,0.542752,-0.304938,-0.756438,-0.200586,-0.380922,0.161476,0.00602337,-0.00175707,0.0150796,0.049421,-0.0362416,0.154815,0.0415338
1413393227505760512,-2.55983,-0.29662,1.36266,0.542351,-0.305904,-0.756503,-0.199953,-0.390433,0.167757,0.00373145,-0.00170654,0.0153652,0.0501199,-0.0398688,0.157952,0.0311171
1413393227555760384,-2.58082,-0.287462,1.36135,0.543464,-0.307818,-0.754855,-0.200226,-0.378929,0.180661,0.00452443,-0.00169257,0.0151946,0.0498019,-0.0328318,0.156609,0.0327794
1413393227605760512,-2.59687,-0.279594,1.36167,0.544262,-0.310978,-0.752861,-0.200679,-0.36379,0.183597,0.0083257,-0.00170682,0.0151205,0.0496155,-0.0329574,0.156577,0.0369789
1413393227655760384,-2.61701,-0.268093,1.3659,0.543094,-0.31457,-0.751789,-0.202256,-0.360708,0.203556,0.0232157,-0.00166808,0.0154611,0.0503135,-0.0417872,0.16077,0.0279813
1413393227705760512,-2.63625,-0.257581,1.36357,0.542014,-0.319429,-0.749773,-0.205006,-0.338636,0.215851,0.0141222,-0.00171027,0.0152748,0.0499592,-0.0367676,0.155615,0.0309145
1413393227755760384,-2.65148,-0.247675,1.3628,0.540945,-0.325407,-0.747092,-0.20819,-0.322645,0.221221,-0.00245658,-0.00169256,0.0151946,0.0498021,-0.0328404,0.156407,0.0324969
1413393227805760512,-2.66854,-0.234929,1.36793,0.538151,-0.331254,-0.745328,-0.212486,-0.320729,0.230556,-0.00941359,-0.00164413,0.0155464,0.0505146,-0.042419,0.162284,0.0252145
1413393227855760384,-2.68167,-0.22425,1.3661,0.537475,-0.339406,-0.741171,-0.215847,-0.297429,0.244697,-0.0131046,-0.00170655,0.0153655,0.0501207,-0.0406956,0.157256,0.0301445
1413393227905760512,-2.69808,-0.211663,1.36258,0.535889,-0.347178,-0.737303,-0.220626,-0.286673,0.247147,-0.00580345,-0.00171028,0.0152748,0.0499594,-0.0368451,0.155475,0.0308279
1413393227955760384,-2.71303,-0.198252,1.36747,0.53385,-0.355671,-0.733084,-0.226031,-0.276702,0.260204,-0.00169799,-0.00165178,0.0156026,0.0507039,-0.0424245,0.160817,0.0225271
1413393228005760512,-2.72524,-0.185034,1.36585,0.531481,-0.36528,-0.728311,-0.231652,-0.245313,0.277444,-0.0188679,-0.00166806,0.0154614,0.0503142,-0.0421798,0.16053,0.0266902
1413393228055760384,-2.73464,-0.172358,1.36349,0.528832,-0.374144,-0.723239,-0.239328,-0.233622,0.278352,-0.0294194,-0.00170657,0.0153655,0.0501208,-0.0407402,0.157261,0.0300487
1413393228105760512,-2.74867,-0.156969,1.36503,0.525277,-0.38388,-0.718473,-0.246001,-0.2287,0.295906,-0.0048471,-0.00168571,0.0156757,0.0508999,-0.0422142,0.15848,0.0211969
1413393228155760384,-2.7616,-0.141201,1.36345,0.520242,-0.393097,-0.714413,-0.253846,-0.209184,0.303751,-0.0276385,-0.00164409,0.0155467,0.0505153,-0.0423878,0.162091,0.024
1413393228205760512,-2.7698,-0.126452,1.36147,0.516123,-0.402826,-0.709804,-0.25986,-0.203469,0.308407,-0.017688,-0.00166806,0.0154614,0.0503144,-0.0421624,0.160501,0.0264865
1413393228255760384,-2.77672,-0.112107,1.36188,0.511474,-0.409629,-0.706464,-0.267409,-0.194351,0.319086,-0.0122588,-0.00173162,0.015735,0.0511084,-0.0407274,0.152901,0.0218004
1413393228305760512,-2.79154,-0.093831,1.36076,0.507204,-0.416018,-0.703372,-0.273753,-0.19454,0.325615,-0.00551189,-0.00165177,0.0156029,0.0507046,-0.0422519,0.160323,0.0218209
1413393228355760384,-2.80182,-0.0771781,1.36075,0.503462,-0.421733,-0.70022,-0.279929,-0.196588,0.334012,0.00624879,-0.00164408,0.0155467,0.0505155,-0.0423609,0.162014,0.0238939
1413393228405760512,-2.80535,-0.0624916,1.36085,0.500167,-0.427169,-0.696547,-0.286675,-0.17399,0.344616,0.00966236,-0.00174405,0.0157858,0.0512949,-0.0404614,0.149511,0.0233482
1413393228455760384,-2.81776,-0.0430734,1.36165,-0.496861,0.433989,0.692363,0.29226,-0.176614,0.352173,0.0193284,-0.00168574,0.015676,0.0509007,-0.0419971,0.157996,0.0210384
1413393228505760512,-2.829,-0.0251081,1.36243,-0.495046,0.439653,0.687394,0.298537,-0.190358,0.349147,0.0193119,-0.00165176,0.0156029,0.0507048,-0.0422182,0.160246,0.0218241
1413393228555760384,-2.82896,-0.0107876,1.36266,-0.493561,0.445285,0.682395,0.304066,-0.159525,0.352991,0.0100875,-0.00179705,0.0158353,0.0514718,-0.0396832,0.146378,0.0226286
1413393228605760512,-2.83969,0.00807038,1.36334,-0.489806,0.451832,0.678775,0.308548,-0.168325,0.353039,0.013282,-0.00173171,0.0157353,0.0511092,-0.0402556,0.152614,0.022305
1413393228655760384,-2.85342,0.0274893,1.36421,-0.487236,0.457709,0.675368,0.31142,-0.183935,0.351591,0.0201417,-0.00168576,0.0156761,0.0509009,-0.0419546,0.157967,0.0210642
1413393228705760512,-2.8544,0.0415093,1.36248,-0.484644,0.461384,0.6731,0.314931,-0.157933,0.351304,0.00893726,-0.0018428,0.0158523,0.05165,-0.0371186,0.141302,0.0251071
1413393228755760384,-2.86541,0.0601368,1.36507,-0.481684,0.465701,0.671464,0.316608,-0.176484,0.351499,0.0185008,-0.00174414,0.015786,0.0512957,-0.0400422,0.149438,0.0241331
1413393228805760512,-2.87467,0.0788551,1.36596,-0.478905,0.470408,0.670771,0.315329,-0.188467,0.368143,0.00103156,-0.00173174,0.0157354,0.0511094,-0.0401349,0.152617,0.0224221
1413393228855760384,-2.88176,0.0946235,1.36244,-0.476915,0.473834,0.670187,0.314456,-0.170063,0.369145,-0.0174623,-0.00182585,0.0158992,0.051846,-0.034712,0.137364,0.031066
1413393228905760512,-2.88849,0.114938,1.36421,-0.473324,0.478364,0.671014,0.311244,-0.17229,0.38892,-0.0120175,-0.00179717,0.0158356,0.0514726,-0.0391708,0.146174,0.0230339
1413393228955760384,-2.90137,0.135744,1.36372,-0.471677,0.480508,0.671006,0.310457,-0.182743,0.401902,-0.0234091,-0.00174416,0.0157861,0.0512959,-0.0399734,0.149449,0.0242446
1413393229005760512,-2.91485,0.153768,1.35779,-0.470105,0.479412,0.671603,0.313233,-0.167528,0.413225,-0.0224861,-0.00173402,0.0159872,0.0520438,-0.0336256,0.136902,0.039326
1413393229055760384,-2.91374,0.176473,1.35815,-0.467938,0.47723,0.672995,0.316801,-0.174825,0.445977,-0.0436804,-0.00184294,0.0158525,0.0516508,-0.0366043,0.141347,0.0259876
1413393229105760512,-2.92339,0.200532,1.35815,-0.466806,0.474158,0.673884,0.321165,-0.183357,0.459719,-0.0645827,-0.0017972,0.0158357,0.0514728,-0.0390986,0.14615,0.023017
1413393229155760384,-2.9441,0.218566,1.35033,-0.46571,0.470345,0.674735,0.326531,-0.191401,0.439241,-0.0593657,-0.00168494,0.0160544,0.052248,-0.0348046,0.136599,0.0431218
1413393229205760512,-2.94332,0.241565,1.34694,-0.46544,0.467405,0.675556,0.329428,-0.20681,0.451409,-0.0924211,-0.00182595,0.0158995,0.0518467,-0.0343744,0.137828,0.0323848
1413393229255760384,-2.95186,0.267883,1.34341,-0.465234,0.464784,0.676474,0.331536,-0.220381,0.462541,-0.108945,-0.00184298,0.0158526,0.0516509,-0.036555,0.141419,0.02617
1413393229305760512,-2.97836,0.284564,1.33498,-0.464871,0.461855,0.676747,0.335558,-0.23967,0.438353,-0.12187,-0.0016773,0.0160627,0.0523916,-0.0352174,0.135503,0.0458842
1413393229355760384,-2.988,0.307465,1.3287,-0.46626,0.46015,0.676491,0.336488,-0.272892,0.442993,-0.139212,-0.00173402,0.0159874,0.0520445,-0.0335995,0.137784,0.0408772
1413393229405760512,-2.991,0.332063,1.32188,-0.469306,0.459281,0.67553,0.335369,-0.27924,0.451089,-0.157428,-0.00182597,0.0158995,0.0518469,-0.034351,0.137909,0.0325418
1413393229455760384,-3.02451,0.350263,1.30966,-0.47252,0.459891,0.673161,0.334782,-0.30135,0.426331,-0.155505,-0.00162876,0.0160705,0.0525351,-0.0329483,0.136866,0.0481535
1413393229505760512,-3.0348,0.371981,1.30697,-0.476791,0.46183,0.670962,0.330443,-0.318591,0.4258,-0.154098,-0.00168489,0.0160547,0.0522488,-0.0349001,0.137219,0.0442825
1413393229555760384,-3.04778,0.394436,1.29844,-0.479597,0.463786,0.669796,0.325981,-0.316347,0.428279,-0.142438,-0.00173401,0.0159875,0.0520447,-0.03359,0.137883,0.0410348
1413393229605760512,-3.07199,0.413003,1.2848,-0.481693,0.466542,0.668325,0.321951,-0.304805,0.417785,-0.134224,-0.00161562,0.0160773,0.052673,-0.0311887,0.136982,0.0488571
1413393229655760384,-3.0825,0.43442,1.28554,-0.481917,0.469625,0.668755,0.316189,-0.308992,0.418878,-0.121457,-0.00167724,0.0160629,0.0523923,-0.0352392,0.135801,0.0469699
1413393229705760512,-3.0969,0.457165,1.28108,-0.480561,0.471434,0.670113,0.312667,-0.292159,0.435288,-0.106032,-0.00168487,0.0160548,0.052249,-0.0348956,0.137252,0.044358
1413393229755760384,-3.11708,0.475466,1.26329,-0.479768,0.472469,0.670723,0.311009,-0.286799,0.425512,-0.0965361,-0.00158053,0.0160644,0.0528272,-0.0278017,0.137953,0.0482781
1413393229805760512,-3.13121,0.49839,1.26669,-0.47658,0.474392,0.673319,0.307354,-0.282099,0.449965,-0.0680909,-0.00162868,0.0160706,0.0525358,-0.0328004,0.137156,0.0494224
1413393229855760384,-3.13969,0.523088,1.26891,-0.473073,0.475693,0.676359,0.304067,-0.269933,0.479622,-0.040028,-0.00167723,0.016063,0.0523925,-0.0352387,0.135816,0.0471062
1413393229905760512,-3.15804,0.542967,1.25317,-0.47132,0.476364,0.677458,0.303291,-0.265673,0.478288,-0.0319508,-0.00155401,0.0161263,0.0529533,-0.0299277,0.137641,0.0504887
1413393229955760384,-3.1718,0.569118,1.25733,-0.469196,0.475956,0.679499,0.302659,-0.269019,0.515338,-0.0130146,-0.00161555,0.0160774,0.0526737,-0.030982,0.137148,0.0499674
1413393230005760512,-3.1855,0.597282,1.26188,-0.466957,0.474179,0.681449,0.304521,-0.262906,0.54992,0.0401284,-0.00162866,0.0160707,0.0525359,-0.0327662,0.137183,0.0496211
1413393230055760384,-3.19628,0.620692,1.2587,-0.46688,0.46924,0.682243,0.310455,-0.275591,0.560693,0.0401837,-0.0015046,0.0162998,0.0530671,-0.0318552,0.136683,0.0519725
1413393230105760512,-3.2119,0.650152,1.25478,-0.467154,0.464509,0.682836,0.315807,-0.277214,0.573574,0.0221362,-0.00158043,0.0160646,0.0528278,-0.0275282,0.138139,0.0493833
1413393230155760384,-3.22667,0.681467,1.26279,-0.466735,0.461234,0.683805,0.319112,-0.29387,0.59209,0.0258472,-0.00161553,0.0160775,0.0526738,-0.0309634,0.137156,0.0500453
1413393230205760512,-3.23898,0.706957,1.26698,-0.466414,0.458274,0.684674,0.32197,-0.315612,0.586818,0.0119066,-0.00143056,0.016471,0.0531623,-0.0317496,0.135409,0.0514343
1413393230255760384,-3.25652,0.737329,1.25756,-0.468657,0.455327,0.683858,0.324617,-0.327057,0.589496,-0.0168117,-0.00155388,0.0161265,0.0529539,-0.0300047,0.137695,0.0512313
1413393230305760512,-3.27422,0.767008,1.25504,-0.471354,0.453623,0.682728,0.325475,-0.345139,0.586834,-0.0267686,-0.0015804,0.0160647,0.052828,-0.0275083,0.138162,0.0495328
1413393230355760384,-3.2921,0.795546,1.26725,-0.471621,0.455299,0.682826,0.32253,-0.361953,0.585475,-0.0493107,-0.0013116,0.0166131,0.0532513,-0.0276862,0.134978,0.047603
1413393230405760512,-3.30816,0.825023,1.25847,-0.475166,0.45573,0.680936,0.32071,-0.365678,0.581279,-0.0541907,-0.00150443,0.0163002,0.0530677,-0.0318914,0.136454,0.0511941
1413393230455760384,-3.32714,0.853534,1.24905,-0.477204,0.457527,0.679028,0.319165,-0.365075,0.582478,-0.0528542,-0.00155384,0.0161266,0.0529541,-0.0300395,0.137669,0.0512163
1413393230505760512,-3.3484,0.88456,1.25952,-0.476548,0.462213,0.677397,0.316853,-0.375477,0.596864,-0.0265875,-0.00129216,0.0167185,0.0533438,-0.0217351,0.132738,0.0422444
1413393230555760384,-3.36333,0.913706,1.25704,-0.476927,0.467495,0.674025,0.31572,-0.356214,0.592533,-0.0360793,-0.00143034,0.0164714,0.0531628,-0.0314424,0.134898,0.0492878
1413393230605760512,-3.38039,0.942585,1.25065,-0.477049,0.473686,0.669423,0.316101,-0.339056,0.598982,-0.0237362,-0.00150438,0.0163002,0.0530679,-0.0318706,0.136382,0.0508671
1413393230655760384,-3.40295,0.975346,1.25448,-0.474301,0.48179,0.664933,0.31746,-0.346854,0.622409,-0.0125636,-0.00118137,0.0167543,0.0534824,-0.0147566,0.131666,0.0393165
1413393230705760512,-3.41895,1.0076,1.25813,-0.472057,0.489425,0.659946,0.319525,-0.332602,0.65619,0.0530142,-0.00131132,0.0166135,0.0532517,-0.0269021,0.13461,0.0456089
1413393230755760384,-3.43012,1.03864,1.26081,-0.470178,0.497172,0.654216,0.322108,-0.301786,0.660818,0.071331,-0.00143027,0.0164715,0.053163,-0.0313561,0.134836,0.0490609
1413393230805760512,-3.44729,1.07213,1.2606,-0.467256,0.504936,0.647789,0.327234,-0.301281,0.67816,0.0649502,-0.00116673,0.016746,0.0536148,-0.0116712,0.12749,0.0378128
1413393230855760384,-3.46408,1.10822,1.2667,-0.462773,0.513574,0.641938,0.331661,-0.269778,0.701855,0.0902018,-0.00129193,0.016719,0.0533443,-0.0206142,0.132359,0.0409593
1413393230905760512,-3.47728,1.14261,1.27499,-0.457048,0.521408,0.6363,0.338176,-0.259201,0.713308,0.131615,-0.00131125,0.0166137,0.0532518,-0.0267616,0.134581,0.0454834
1413393230955760384,-3.4835,1.17593,1.27263,-0.451205,0.525718,0.631643,0.34794,-0.241215,0.715067,0.122649,-0.001177,0.0167687,0.0538071,-0.00779607,0.124673,0.035855
1413393231005760512,-3.50391,1.21393,1.28063,-0.44266,0.531226,0.627864,0.357266,-0.235655,0.725096,0.145652,-0.00118113,0.0167548,0.0534829,-0.0135799,0.131711,0.0387817
1413393231055760384,-3.51307,1.25218,1.29197,-0.434983,0.534849,0.625553,0.365254,-0.234698,0.746657,0.146453,-0.0012919,0.0167192,0.0533444,-0.0204422,0.132304,0.0408827
1413393231105760512,-3.51733,1.28451,1.29253,-0.430214,0.535668,0.622695,0.374468,-0.254996,0.736933,0.125508,-0.00113851,0.0168241,0.0539317,-0.00534082,0.125386,0.0345933
1413393231155760384,-3.5365,1.32319,1.30083,-0.42444,0.53832,0.620327,0.381126,-0.2713,0.745524,0.145484,-0.00116652,0.0167464,0.0536152,-0.0108748,0.127674,0.0381951
1413393231205760512,-3.55623,1.36254,1.30974,-0.420106,0.542138,0.617742,0.384697,-0.291758,0.760122,0.149626,-0.00118107,0.0167549,0.053483,-0.0134216,0.1318,0.0388595
1413393231255760384,-3.55959,1.39636,1.31258,-0.418104,0.542386,0.616281,0.388851,-0.319231,0.751691,0.128815,-0.00107391,0.0168229,0.054052,-0.00277341,0.124966,0.0336332
1413393231305760512,-3.57737,1.43434,1.31905,-0.417462,0.545134,0.61352,0.390061,-0.332358,0.745434,0.0861608,-0.0011768,0.0167691,0.0538077,-0.00711367,0.124718,0.0363337
1413393231355760384,-3.59995,1.4734,1.32526,-0.417339,0.549101,0.610199,0.389838,-0.35425,0.751755,0.0420986,-0.00116645,0.0167464,0.0536153,-0.0108178,0.127692,0.0383354
1413393231405760512,-3.61162,1.50823,1.32145,-0.420805,0.550988,0.606589,0.389083,-0.369429,0.751401,-0.0073391,-0.00101704,0.0168316,0.0541867,-0.00290046,0.124207,0.0329778
1413393231455760384,-3.62887,1.54592,1.32099,-0.425392,0.553277,0.601866,0.388179,-0.365247,0.754144,-0.0371739,-0.00113829,0.0168244,0.0539323,-0.00474653,0.125248,0.0343612
1413393231505760512,-3.64922,1.58385,1.31781,-0.432155,0.554512,0.5957,0.388459,-0.373099,0.741368,-0.0785034,-0.00117673,0.0167692,0.0538079,-0.00704287,0.124668,0.0363374
1413393231555760384,-3.66663,1.6196,1.3099,-0.440739,0.553136,0.589015,0.390962,-0.376092,0.729443,-0.136863,-0.000982355,0.0167797,0.0543181,0.00136816,0.124767,0.0332351
1413393231605760512,-3.68433,1.65616,1.30375,-0.448481,0.552105,0.582942,0.392712,-0.344251,0.707511,-0.163438,-0.00107366,0.0168231,0.0540526,-0.00222517,0.124823,0.0334506
1413393231655760384,-3.70113,1.69142,1.29726,-0.453339,0.552256,0.578111,0.394061,-0.335149,0.680717,-0.175303,-0.00113823,0.0168245,0.0539325,-0.00465508,0.125214,0.0342667
1413393231705760512,-3.71752,1.72327,1.28496,-0.454846,0.552596,0.574967,0.396442,-0.308521,0.649357,-0.185155,-0.000981609,0.0167676,0.054442,0.00417739,0.125327,0.0321733
1413393231755760384,-3.73279,1.75597,1.27682,-0.453117,0.555687,0.573044,0.396885,-0.269777,0.624803,-0.16629,-0.00101678,0.0168318,0.0541873,-0.00268512,0.124018,0.0331279
1413393231805760512,-3.745,1.78636,1.26893,-0.450617,0.560182,0.571181,0.396097,-0.261625,0.588413,-0.158039,-0.00107359,0.0168232,0.0540528,-0.00217102,0.124793,0.0334999
1413393231855760384,-3.75685,1.81376,1.26045,-0.448454,0.566297,0.56816,0.394198,-0.229855,0.557034,-0.15304,-0.00099788,0.0167413,0.0545772,0.00611345,0.126334,0.0302621
1413393231905760512,-3.76898,1.84178,1.25208,-0.444054,0.574542,0.565313,0.39133,-0.189815,0.537424,-0.124097,-0.000982148,0.0167797,0.0543187,0.0017571,0.124829,0.0335519
1413393231955760384,-3.77725,1.86984,1.2491,-0.440331,0.582782,0.561654,0.388612,-0.159517,0.535871,-0.100684,-0.00101672,0.0168318,0.0541875,-0.00270074,0.123961,0.0331667
1413393232005760512,-3.78262,1.89394,1.24309,-0.436533,0.590408,0.556708,0.388502,-0.115693,0.513143,-0.0989154,-0.00100139,0.0166644,0.0546752,0.00407142,0.128959,0.0292667
1413393232055760384,-3.78881,1.91978,1.23771,-0.430696,0.596788,0.552941,0.390642,-0.0693044,0.516929,-0.0592129,-0.000981487,0.0167676,0.0544426,0.00471946,0.125314,0.0318011
1413393232105760512,-3.79163,1.94541,1.23608,-0.424688,0.602834,0.548671,0.393944,-0.0324223,0.499855,-0.0306624,-0.000982115,0.0167797,0.0543189,0.00183328,0.124868,0.0336018
1413393232155760384,-3.78989,1.97047,1.2361,-0.418155,0.608818,0.543973,0.398221,0.00733039,0.494087,-0.0363707,-0.00101916,0.0166097,0.0547701,0.000694848,0.131362,0.0296094
1413393232205760512,-3.78989,1.99509,1.23325,-0.411591,0.612562,0.539007,0.405996,0.0388725,0.493641,-0.0332442,-0.000997862,0.0167413,0.0545778,0.00652293,0.126238,0.0293371
1413393232255760384,-3.7882,2.01923,1.23012,-0.405541,0.617225,0.533294,0.412515,0.0615061,0.485413,-0.0660359,-0.000981491,0.0167676,0.0544428,0.00475348,0.1253,0.0316683
1413393232305760512,-3.78274,2.04484,1.22885,-0.399533,0.622481,0.527146,0.41834,0.0905528,0.486354,-0.0954167,-0.00104962,0.016576,0.0548969,-0.00538579,0.133797,0.0304027
1413393232355760384,-3.77809,2.06857,1.22168,-0.394838,0.628505,0.519534,0.423284,0.107627,0.484157,-0.139051,-0.00100144,0.0166642,0.0546758,0.00350946,0.128938,0.0285574
1413393232405760512,-3.77225,2.09216,1.21294,-0.389157,0.634733,0.513292,0.426853,0.1348,0.479342,-0.160194,-0.000997885,0.0167413,0.054578,0.00649935,0.126236,0.0291982
1413393232455760384,-3.76331,2.11796,1.20872,-0.382897,0.641598,0.506978,0.429787,0.154675,0.48172,-0.189499,-0.00106923,0.0165777,0.0549954,-0.0111025,0.137176,0.0338955
1413393232505760512,-3.75607,2.14133,1.19518,-0.378081,0.647491,0.499988,0.433385,0.171394,0.483861,-0.236454,-0.00101925,0.0166094,0.0547706,-0.00055735,0.131511,0.029372
1413393232555760384,-3.74743,2.1649,1.18128,-0.374234,0.652185,0.49403,0.436508,0.189087,0.485517,-0.280811,-0.00100146,0.0166641,0.0546759,0.00330017,0.128968,0.0285127
1413393232605760512,-3.73613,2.1919,1.17439,-0.369917,0.65677,0.490177,0.437655,0.196537,0.490547,-0.294322,-0.00107027,0.0165899,0.0550665,-0.0192082,0.140337,0.0395528
1413393232655760384,-3.72701,2.21499,1.15544,-0.368286,0.659679,0.48491,0.440512,0.23017,0.484482,-0.287961,-0.00104974,0.0165757,0.0548975,-0.00707636,0.134008,0.0304482
1413393232705760512,-3.71526,2.2381,1.13874,-0.367031,0.661492,0.480748,0.443395,0.237111,0.483478,-0.289849,-0.00101929,0.0166093,0.0547707,-0.000782701,0.13156,0.0293649
1413393232755760384,-3.70051,2.26608,1.13618,-0.362933,0.664044,0.479897,0.443874,0.257268,0.492295,-0.241625,-0.00107402,0.0166258,0.0551165,-0.0261477,0.143378,0.0435109
1413393232805760512,-3.68826,2.2888,1.11789,-0.361718,0.664771,0.477514,0.446341,0.29243,0.494421,-0.25269,-0.00106937,0.0165774,0.054996,-0.012863,0.137617,0.0340491
1413393232855760384,-3.67402,2.31216,1.10214,-0.361617,0.664842,0.475333,0.44864,0.302731,0.49725,-0.252816,-0.00104978,0.0165755,0.0548976,-0.00732276,0.134052,0.0304416
1413393232905760512,-3.65794,2.34265,1.10249,-0.357055,0.667202,0.476748,0.447287,0.317791,0.510346,-0.216227,-0.00103485,0.0166886,0.0552244,-0.0281408,0.146173,0.0482363
1413393232955760384,-3.64119,2.3656,1.08849,-0.354699,0.665753,0.477505,0.450501,0.345221,0.502505,-0.181222,-0.0010704,0.0165896,0.055067,-0.0211947,0.140917,0.0397972
1413393233005760512,-3.62337,2.38865,1.07458,-0.352837,0.664394,0.478501,0.452906,0.356056,0.505556,-0.161655,-0.00106942,0.0165773,0.0549961,-0.0131044,0.137711,0.0340324
1413393233055760384,-3.60786,2.42112,1.08065,-0.346906,0.66482,0.482156,0.452987,0.354327,0.534968,-0.0972549,-0.00103719,0.0166957,0.0553285,-0.0328546,0.147058,0.0529046
1413393233105760512,-3.58627,2.44574,1.07422,-0.345337,0.664131,0.483754,0.453493,0.378761,0.525428,-0.0709194,-0.00107415,0.0166254,0.0551169,-0.0280039,0.143929,0.0435259
1413393233155760384,-3.56814,2.46946,1.06646,-0.345665,0.662585,0.484032,0.455203,0.379401,0.527953,-0.039008,-0.00107045,0.0165894,0.0550671,-0.0214863,0.141011,0.0397719
1413393233205760512,-3.55256,2.50296,1.07544,-0.342229,0.662745,0.485384,0.456126,0.371747,0.563744,0.0301609,-0.00103107,0.0167099,0.0553455,-0.0339641,0.148359,0.0555448
1413393233255760384,-3.5315,2.53014,1.07585,-0.342988,0.660918,0.483098,0.460612,0.395323,0.554216,0.0644343,-0.00103496,0.0166884,0.0552248,-0.0293778,0.146942,0.0481196
1413393233305760512,-3.50838,2.55551,1.07832,-0.344161,0.659252,0.480063,0.465274,0.397899,0.55897,0.105105,-0.0010742,0.0166253,0.0551169,-0.0282384,0.144015,0.0434848
1413393233355760384,-3.49537,2.58847,1.09126,-0.341382,0.658928,0.476725,0.471175,0.386166,0.570442,0.171096,-0.00100979,0.0167396,0.0553536,-0.0359435,0.150246,0.0586576
1413393233405760512,-3.47486,2.61523,1.09771,-0.342748,0.658656,0.47,0.47728,0.389846,0.548877,0.177153,-0.00103734,0.0166954,0.0553289,-0.034091,0.147886,0.0531747
1413393233455760384,-3.45282,2.64106,1.10489,-0.344905,0.659929,0.461703,0.482043,0.386819,0.537496,0.218215,-0.00103502,0.0166883,0.0552249,-0.0294884,0.14711,0.0480942
1413393233505760512,-3.44184,2.67496,1.12524,-0.33843,0.663066,0.457263,0.486538,0.360815,0.527685,0.276158,-0.000816503,0.0169319,0.0555649,-0.037674,0.156583,0.0638817
1413393233555760384,-3.41904,2.69479,1.13569,-0.337799,0.666253,0.449168,0.49015,0.367159,0.487863,0.273586,-0.00103124,0.0167097,0.0553458,-0.0347849,0.149138,0.0557937
1413393233605760512,-3.39926,2.71824,1.14926,-0.331734,0.670573,0.443878,0.49321,0.368314,0.482908,0.317778,-0.00103743,0.0166954,0.055329,-0.0342824,0.148042,0.0532373
1413393233655760384,-3.39063,2.75218,1.17519,-0.319,0.678443,0.439948,0.494368,0.339937,0.498263,0.368084,-0.000725747,0.0172193,0.0557591,-0.0471098,0.156094,0.069512
1413393233705760512,-3.36748,2.76737,1.18646,-0.313619,0.684133,0.433256,0.495878,0.338373,0.463368,0.386096,-0.00100997,0.0167394,0.0553538,-0.0366031,0.151016,0.0587198
1413393233755760384,-3.34866,2.78785,1.20519,-0.306821,0.687399,0.426788,0.501195,0.33334,0.45182,0.440733,-0.00103132,0.0167097,0.0553458,-0.0348626,0.149261,0.055796
1413393233805760512,-3.34199,2.82386,1.24304,-0.297312,0.693759,0.419097,0.504641,0.291429,0.468498,0.484951,-0.000681026,0.0174448,0.0559353,-0.0542243,0.15314,0.0741608
1413393233855760384,-3.32623,2.84541,1.25673,-0.295967,0.694436,0.411287,0.510887,0.272063,0.463957,0.453911,-0.000816495,0.0169319,0.0555652,-0.0383373,0.157872,0.0633624
1413393233905760512,-3.3063,2.85626,1.27544,-0.299526,0.694871,0.402269,0.515382,0.270007,0.420877,0.443065,-0.00101003,0.0167394,0.0553538,-0.0366719,0.151149,0.0586928
1413393233955760384,-3.30235,2.89091,1.31616,-0.291396,0.699331,0.394823,0.51975,0.248388,0.43324,0.463621,-0.000729805,0.0175744,0.0560927,-0.0593482,0.14867,0.0786227
1413393234005760512,-3.29129,2.9158,1.33149,-0.290994,0.703936,0.385566,0.520707,0.22707,0.426549,0.456116,-0.000725704,0.0172196,0.0557596,-0.0487625,0.15735,0.0696186
1413393234055760384,-3.27681,2.93095,1.34541,-0.291788,0.708229,0.375918,0.521495,0.221796,0.386889,0.427365,-0.000816521,0.0169319,0.0555653,-0.0384567,0.158159,0.0632573
1413393234105760512,-3.26906,2.94908,1.38552,-0.284389,0.715738,0.368923,0.520325,0.211378,0.370578,0.440963,-0.00075682,0.0175984,0.0561483,-0.0623864,0.146124,0.0813702
1413393234155760384,-3.25868,2.97439,1.40269,-0.280233,0.722062,0.36173,0.518891,0.205187,0.368074,0.385864,-0.000681001,0.0174453,0.055936,-0.0560737,0.154094,0.0749215
1413393234205760512,-3.24825,2.99251,1.41388,-0.27969,0.725994,0.353703,0.519232,0.210048,0.348091,0.339927,-0.000725728,0.0172197,0.0557598,-0.0491142,0.157484,0.0697336
1413393234255760384,-3.23779,2.99988,1.44438,-0.28134,0.727864,0.34327,0.522712,0.212951,0.320408,0.318292,-0.000785301,0.0176579,0.0561768,-0.0654355,0.14449,0.0835409
1413393234305760512,-3.22722,3.0219,1.456,-0.287193,0.728536,0.32955,0.527401,0.218272,0.305878,0.276858,-0.00072987,0.017575,0.0560934,-0.0605848,0.149442,0.0798341
1413393234355760384,-3.21549,3.04054,1.46501,-0.295329,0.729008,0.314001,0.531725,0.230825,0.267107,0.245693,-0.000681004,0.0174454,0.0559362,-0.0562334,0.154204,0.075057
1413393234405760512,-3.20805,3.03865,1.48142,-0.301058,0.728047,0.301278,0.537162,0.238867,0.183444,0.202593,-0.000946863,0.0177276,0.0563273,-0.0520812,0.135464,0.0860672
1413393234455760384,-3.19256,3.05083,1.49177,-0.304697,0.730085,0.2878,0.539729,0.248269,0.135435,0.180392,-0.000756902,0.0175988,0.0561488,-0.0626784,0.146837,0.0822532
1413393234505760512,-3.17891,3.06139,1.49813,-0.304247,0.731476,0.277737,0.543359,0.265342,0.0581114,0.14585,-0.000729892,0.0175751,0.0560936,-0.0605076,0.149667,0.0799408
1413393234555760384,-3.17045,3.05069,1.50603,-0.300241,0.731476,0.271301,0.548812,0.272556,-0.0616053,0.189336,-0.00101366,0.0177842,0.0563866,-0.0461581,0.134438,0.0862591
1413393234605760512,-3.15083,3.04889,1.5213,-0.286874,0.733354,0.268868,0.554622,0.302188,-0.120197,0.214235,-0.000785355,0.0176581,0.056177,-0.0652808,0.145013,0.0838652
1413393234655760384,-3.13624,3.04339,1.53096,-0.266707,0.734081,0.270333,0.562949,0.298501,-0.206462,0.285558,-0.000756915,0.0175989,0.0561489,-0.0626612,0.146867,0.0822639
1413393234705760512,-3.12779,3.02671,1.54516,-0.243477,0.734911,0.275969,0.569619,0.256892,-0.298911,0.420235,-0.00106766,0.0179237,0.0565508,-0.0373183,0.134673,0.091041
1413393234755760384,-3.11637,3.00618,1.5681,-0.223791,0.738984,0.276765,0.572033,0.221027,-0.348419,0.455611,-0.000947108,0.0177279,0.0563276,-0.0503788,0.135304,0.0860178
1413393234805760512,-3.09715,2.99671,1.60078,-0.202803,0.746319,0.278199,0.569636,0.208427,-0.337492,0.476715,-0.000785355,0.0176581,0.056177,-0.0652808,0.145013,0.0838652
1413393234855760384,-3.09726,2.98079,1.60982,-0.186838,0.751845,0.27771,0.568066,0.156658,-0.346033,0.371218,-0.00099306,0.0179412,0.0567955,-0.0229086,0.130229,0.101656
1413393234905760512,-3.08946,2.95285,1.62845,-0.181746,0.760086,0.26743,0.563666,0.14659,-0.362944,0.299723,-0.00101397,0.0177846,0.0563869,-0.0446224,0.134287,0.0860067
1413393234955760384,-3.08273,2.93404,1.6436,-0.176986,0.766698,0.257958,0.560632,0.126742,-0.353354,0.205399,-0.000947214,0.017728,0.0563277,-0.050079,0.135249,0.0859883
1413393235005760512,-3.07844,2.93552,1.64205,-0.171406,0.772182,0.248989,0.558891,0.0954498,-0.309885,0.0733018,-0.000912916,0.0179712,0.0569893,-0.00774276,0.13312,0.10464
1413393235055760384,-3.07129,2.90719,1.64988,-0.174328,0.778674,0.233083,0.555833,0.111311,-0.329409,-0.00391965,-0.00106801,0.0179242,0.0565513,-0.0359472,0.135127,0.0908574
1413393235105760512,-3.06494,2.88278,1.64915,-0.174645,0.783731,0.218254,0.554644,0.120955,-0.349119,-0.0871173,-0.00101408,0.0177847,0.056387,-0.044483,0.134305,0.086
1413393235155760384,-3.06418,2.89049,1.62947,-0.166071,0.786944,0.208638,0.556427,0.100393,-0.306794,-0.198043,-0.000892113,0.0179654,0.0571003,-0.000875115,0.132118,0.103365
1413393235205760512,-3.05844,2.86708,1.62689,-0.159525,0.790104,0.198892,0.557432,0.112822,-0.324836,-0.196846,-0.000993266,0.0179415,0.056796,-0.0213326,0.131518,0.102208
1413393235255760384,-3.0463,2.83932,1.62178,-0.150208,0.794552,0.191406,0.556317,0.143761,-0.349459,-0.199333,-0.00106813,0.0179243,0.0565513,-0.035808,0.135277,0.0908627
1413393235305760512,-3.05012,2.84645,1.59788,-0.132096,0.795603,0.187972,0.560565,0.105917,-0.307109,-0.210986,-0.000854002,0.0180019,0.0572159,-0.00407488,0.125066,0.0998714
1413393235355760384,-3.04299,2.82788,1.58968,-0.119963,0.799328,0.185804,0.558714,0.109349,-0.28512,-0.195631,-0.000912993,0.0179715,0.0569898,-0.00570158,0.134602,0.104838
1413393235405760512,-3.03465,2.80436,1.58991,-0.110975,0.803289,0.183101,0.555775,0.121997,-0.273689,-0.155776,-0.000993334,0.0179416,0.0567961,-0.0211291,0.131754,0.102364
1413393235455760384,-3.0345,2.80787,1.57117,-0.100136,0.805187,0.179847,0.55615,0.116214,-0.225035,-0.161172,-0.000813163,0.0180715,0.0573364,-0.00468691,0.117949,0.0994784
1413393235505760512,-3.02585,2.79339,1.56146,-0.0922944,0.808386,0.180034,0.552795,0.130939,-0.184415,-0.130116,-0.000892168,0.0179656,0.0571009,0.000890703,0.132989,0.103512
1413393235555760384,-3.01795,2.78435,1.56058,-0.0825224,0.807839,0.181154,0.55477,0.151132,-0.133936,-0.0798157,-0.000913005,0.0179716,0.05699,-0.00540411,0.134846,0.104805
1413393235605760512,-3.0142,2.78116,1.5546,-0.0708992,0.804775,0.181942,0.560542,0.139344,-0.0908239,-0.105927,-0.000820534,0.0181165,0.0574556,-0.000706373,0.121156,0.0955529
1413393235655760384,-3.00688,2.77841,1.54799,-0.0625198,0.802679,0.181538,0.564662,0.141718,-0.0314792,-0.0867328,-0.000854024,0.0180021,0.0572165,-0.00383336,0.123948,0.100448
1413393235705760512,-2.99742,2.77781,1.54196,-0.057152,0.80015,0.181013,0.568971,0.131132,0.0480436,-0.093006,-0.000892179,0.0179656,0.057101,0.00108036,0.132971,0.103572
1413393235755760384,-2.99358,2.77686,1.54111,-0.0579468,0.799145,0.176598,0.571685,0.116836,0.1043,-0.0789834,-0.000901147,0.0180778,0.0575103,0.00280723,0.138618,0.0852714
1413393235805760512,-2.9892,2.79061,1.53636,-0.0596127,0.798264,0.171355,0.574333,0.0965405,0.166785,-0.0704085,-0.000813127,0.0180718,0.057337,-0.00483043,0.11599,0.100525
1413393235855760384,-2.98368,2.79851,1.53161,-0.069335,0.798302,0.162973,0.575628,0.0877432,0.213277,-0.0741628,-0.000854006,0.0180022,0.0572167,-0.0039973,0.123376,0.10059
1413393235905760512,-2.97863,2.80022,1.52793,-0.083012,0.798909,0.152123,0.575944,0.0736696,0.237567,-0.0770568,-0.000962829,0.0180257,0.0576047,0.00184177,0.158436,0.0681553
1413393235955760384,-2.9768,2.82115,1.52709,-0.0907575,0.799067,0.141072,0.577368,0.0605547,0.251487,-0.0618822,-0.000820463,0.0181168,0.0574562,0.000662213,0.119952,0.0948332
1413393236005760512,-2.97488,2.83569,1.52479,-0.0966202,0.798599,0.131105,0.57941,0.0436828,0.239544,-0.0295826,-0.000813085,0.0180718,0.0573372,-0.00472721,0.115807,0.10071
1413393236055760384,-2.96759,2.83461,1.51903,-0.10485,0.79946,0.120034,0.579191,0.055812,0.234029,-0.0328391,-0.0010056,0.0179572,0.0577009,-0.00165315,0.172084,0.0542741
1413393236105760512,-2.96702,2.85225,1.52197,-0.104218,0.800073,0.110622,0.580331,0.064918,0.218066,0.0120675,-0.000901116,0.0180781,0.0575109,0.00463288,0.138313,0.080905
1413393236155760384,-2.9667,2.86567,1.525,-0.101974,0.800787,0.100518,0.581582,0.0188738,0.160547,0.0275269,-0.000820441,0.0181169,0.0574564,0.00105643,0.119938,0.0944507
1413393236205760512,-2.95663,2.86138,1.51969,-0.0978626,0.803597,0.0925693,0.579729,0.0222502,0.137335,0.052644,-0.00103074,0.0179052,0.0578352,-0.0101632,0.183681,0.0443529
1413393236255760384,-2.96105,2.87216,1.52768,-0.0853827,0.805958,0.0882638,0.579095,-0.0160441,0.12046,0.0899894,-0.000962873,0.0180259,0.0576052,0.00204834,0.157377,0.0618068
1413393236305760512,-2.96516,2.88058,1.5344,-0.0703422,0.807851,0.0840347,0.579109,-0.02137,0.0876687,0.0777297,-0.000901147,0.0180781,0.057511,0.00466428,0.138258,0.0799922
1413393236355760384,-2.95701,2.87716,1.53088,-0.0612023,0.809709,0.0761575,0.578641,0.00129128,0.0932421,0.110091,-0.00105601,0.0179231,0.0579623,-0.0170006,0.186365,0.0416887
1413393236405760512,-2.96034,2.88459,1.53912,-0.0522175,0.811611,0.0681746,0.577852,-0.000700566,0.107116,0.106839,-0.00100572,0.0179574,0.0577014,-0.00339423,0.170459,0.049023
1413393236455760384,-2.9636,2.89178,1.54675,-0.0446529,0.812844,0.0589508,0.577768,-0.0155992,0.100731,0.0939029,-0.000962919,0.018026,0.0576053,0.00177337,0.157108,0.0610188
1413393236505760512,-2.95559,2.89111,1.54678,-0.0408814,0.816131,0.0475144,0.574458,0.0067881,0.0983319,0.0986637,-0.00110323,0.0179621,0.0580668,-0.0192263,0.189854,0.040886
1413393236555760384,-2.95592,2.89815,1.55355,-0.0345153,0.81977,0.0375381,0.570419,0.0174961,0.10439,0.103206,-0.00103087,0.0179053,0.0578358,-0.013594,0.182157,0.0413261
1413393236605760512,-2.95944,2.90524,1.5594,-0.0284392,0.824698,0.0277446,0.564176,0.0249591,0.109455,0.099396,-0.00100577,0.0179574,0.0577015,-0.00374644,0.170261,0.048624
1413393236655760384,-2.95194,2.90739,1.56211,-0.0244586,0.829365,0.0174511,0.557899,0.0627551,0.111982,0.0571044,-0.00111517,0.0180299,0.0581486,-0.0186306,0.186393,0.0504986
1413393236705760512,-2.94921,2.91394,1.56266,-0.0218609,0.831172,0.00771969,0.555532,0.0722546,0.116487,0.00125422,-0.00105614,0.0179232,0.0579629,-0.0203009,0.18548,0.0408429
1413393236755760384,-2.94533,2.92033,1.56204,-0.0212918,0.831563,-0.00259499,0.555016,0.0980817,0.110351,-0.0507159,-0.0010309,0.0179053,0.057836,-0.0141274,0.182009,0.0412282
1413393236805760512,-2.93749,2.92534,1.56199,-0.0216255,0.830896,-0.0126681,0.555863,0.12666,0.103305,-0.0887554,-0.00111541,0.0181372,0.0582279,-0.0229438,0.172773,0.0654738
1413393236855760384,-2.93082,2.92838,1.55342,-0.02195,0.828966,-0.0217824,0.558443,0.161774,0.0878226,-0.0806838,-0.00110337,0.0179623,0.0580675,-0.0208044,0.189948,0.0403927
1413393236905760512,-2.92366,2.93319,1.55034,-0.0197513,0.826977,-0.0276291,0.561209,0.184216,0.0627059,-0.0122736,-0.00105617,0.0179232,0.0579631,-0.0205627,0.18546,0.0408813
1413393236955760384,-2.90967,2.93805,1.55839,-0.0142499,0.824091,-0.0291186,0.56553,0.21259,0.0363094,0.03488,-0.00110723,0.0182574,0.0583479,-0.0328997,0.159941,0.0793681
1413393237005760512,-2.90168,2.93669,1.5561,-0.0104363,0.821212,-0.0303527,0.56972,0.227085,0.0216925,0.122795,-0.00111529,0.0180301,0.0581493,-0.018909,0.1878,0.0515137
1413393237055760384,-2.88997,2.9362,1.56272,-0.00516141,0.818928,-0.0292022,0.57313,0.222242,-0.00632197,0.189673,-0.00110342,0.0179623,0.0580677,-0.0207722,0.190066,0.0403095
1413393237105760512,-2.87826,2.94136,1.58281,0.00441609,0.817045,-0.0243293,0.576044,0.221028,-0.00521588,0.271793,-0.00107895,0.0183497,0.0584868,-0.0423475,0.152801,0.0873961
1413393237155760384,-2.86717,2.93842,1.59156,0.0115792,0.814666,-0.0198637,0.579475,0.230008,0.0030862,0.248175,-0.00111553,0.0181374,0.0582285,-0.0243315,0.17491,0.0706467
1413393237205760512,-2.85604,2.93694,1.59846,0.0184263,0.812897,-0.0146552,0.581932,0.236009,0.0142129,0.192585,-0.00111533,0.0180301,0.0581494,-0.0188506,0.188156,0.0520239
1413393237255760384,-2.84558,2.94239,1.617,0.0257585,0.81129,-0.00940213,0.584001,0.233835,0.0247312,0.136799,-0.00105931,0.018442,0.0586236,-0.0458934,0.145246,0.0940273
1413393237305760512,-2.83061,2.94357,1.6199,0.0291674,0.811769,-0.00602037,0.583218,0.230427,0.0547135,0.0729524,-0.00110732,0.0182576,0.0583484,-0.0365847,0.16176,0.0876554
1413393237355760384,-2.82027,2.94512,1.61591,0.0310149,0.812083,-0.00345044,0.582707,0.231721,0.084785,-0.0151619,-0.00111555,0.0181374,0.0582286,-0.0246581,0.175279,0.0720416
1413393237405760512,-2.81348,2.95313,1.62143,0.0330756,0.811052,-0.00120618,0.584037,0.21388,0.104615,-0.0682833,-0.00106954,0.0184751,0.0587154,-0.0452748,0.139548,0.0985338
1413393237455760384,-2.79974,2.9594,1.61617,0.0298906,0.810874,-0.00131529,0.584456,0.21057,0.147459,-0.101511,-0.00107898,0.0183499,0.0584875,-0.0465228,0.153166,0.0945322
1413393237505760512,-2.78661,2.96649,1.60889,0.0228858,0.810428,-0.00385175,0.585378,0.213726,0.17521,-0.126082,-0.00110733,0.0182577,0.0583486,-0.0372178,0.161907,0.0888297
1413393237555760384,-2.78327,2.97693,1.60629,0.0148027,0.810399,-0.00805563,0.585637,0.191174,0.187713,-0.104269,-0.00108793,0.018485,0.0588037,-0.0447889,0.135375,0.101788
1413393237605760512,-2.77178,2.98583,1.60251,0.00524273,0.81021,-0.0122119,0.585989,0.181575,0.195612,-0.0994485,-0.00105929,0.0184422,0.0586243,-0.0475618,0.144094,0.0986637
1413393237655760384,-2.76045,2.9963,1.59581,-0.00405129,0.811575,-0.0166383,0.583998,0.176189,0.193997,-0.0874273,-0.00107896,0.01835,0.0584877,-0.0469742,0.152991,0.0950375
1413393237705760512,-2.75831,3.0071,1.59112,-0.0107826,0.811768,-0.0199635,0.583539,0.164183,0.176841,-0.0916266,-0.00109741,0.0184999,0.0588954,-0.0499019,0.131755,0.113436
1413393237755760384,-2.74782,3.01376,1.58907,-0.0162632,0.812814,-0.0215203,0.581899,0.155564,0.159438,-0.0764625,-0.00106953,0.0184753,0.058716,-0.0441641,0.137852,0.101948
1413393237805760512,-2.7381,3.02128,1.58627,-0.0195722,0.813845,-0.0218942,0.58034,0.168102,0.138695,-0.0484605,-0.00105926,0.0184423,0.0586245,-0.0473019,0.143849,0.0991512
1413393237855760384,-2.73127,3.02951,1.58213,-0.018833,0.81518,-0.0205851,0.578536,0.174133,0.111538,-0.0577759,-0.00109757,0.018553,0.0589684,-0.0559391,0.124323,0.134341
1413393237905760512,-2.72367,3.03251,1.58058,-0.0176752,0.817285,-0.0180382,0.575681,0.17342,0.0879144,-0.0334305,-0.00108796,0.0184852,0.0588043,-0.0432121,0.133758,0.105014
1413393237955760384,-2.71399,3.03657,1.57952,-0.0155184,0.81859,-0.0159012,0.573948,0.173505,0.0651129,-0.0456131,-0.00106953,0.0184754,0.0587162,-0.0438,0.137647,0.10248
1413393238005760512,-2.70433,3.04153,1.57595,-0.00736511,0.821579,-0.0106248,0.569948,0.174403,0.0482802,-0.0478398,-0.00110138,0.0186142,0.0590636,-0.0625489,0.118936,0.152612
1413393238055760384,-2.69871,3.04323,1.57241,-0.00138418,0.824044,-0.00549786,0.566498,0.193807,0.0504281,-0.0311726,-0.00109747,0.0185,0.0588959,-0.0514908,0.131192,0.119809
1413393238105760512,-2.68665,3.04398,1.57144,0.00360137,0.826428,-0.00201626,0.563027,0.214204,0.0466302,-0.0347709,-0.00108798,0.0184852,0.0588044,-0.0431189,0.133538,0.105455
1413393238155760384,-2.67589,3.04925,1.57067,0.00968551,0.826883,-5.8926e-05,0.56229,0.218747,0.0443752,0.00315129,-0.00110047,0.0186554,0.0591853,-0.0685972,0.11936,0.162077
1413393238205760512,-2.66359,3.05108,1.57218,0.013223,0.82756,0.00137996,0.561219,0.246911,0.0677477,0.0111726,-0.00109764,0.0185531,0.0589689,-0.0596133,0.124104,0.147069
1413393238255760384,-2.65315,3.0544,1.57276,0.0158766,0.827786,0.00219804,0.560815,0.261321,0.0839441,0.0530331,-0.00109749,0.0185,0.0588961,-0.0521354,0.131226,0.121555
1413393238305760512,-2.64013,3.06066,1.57763,0.0193181,0.828249,0.00117881,0.560026,0.289046,0.0969645,0.126781,-0.00111266,0.0187104,0.0592873,-0.0706777,0.120509,0.164438
1413393238355760384,-2.62116,3.06536,1.58651,0.0201624,0.8286,-0.00019103,0.559479,0.332652,0.129615,0.15281,-0.00110145,0.0186143,0.0590642,-0.0662214,0.118492,0.166994
1413393238405760512,-2.60306,3.07185,1.59486,0.0201704,0.828159,-0.00187411,0.560128,0.391144,0.147784,0.209154,-0.00109765,0.0185531,0.0589691,-0.0600631,0.123968,0.149969
1413393238455760384,-2.58919,3.08163,1.60685,0.0179866,0.826959,-0.0060528,0.561942,0.39903,0.167851,0.251345,-0.00113377,0.0187291,0.0593681,-0.0654731,0.12034,0.161526
1413393238505760512,-2.56503,3.08965,1.61919,0.011799,0.825789,-0.0123201,0.563722,0.41106,0.179321,0.223517,-0.0011005,0.0186555,0.0591859,-0.0715942,0.118952,0.169912
1413393238555760384,-2.54259,3.09774,1.62949,0.00418797,0.823353,-0.019418,0.567182,0.410444,0.182381,0.1681,-0.00110145,0.0186144,0.0590644,-0.0665343,0.118348,0.16836
1413393238605760512,-2.52704,3.10841,1.6362,-0.00429012,0.82125,-0.0272682,0.569901,0.423636,0.17089,0.115886,-0.00114202,0.0187669,0.0594526,-0.0621705,0.124206,0.155705
1413393238655760384,-2.50437,3.11607,1.64096,-0.0122776,0.81958,-0.0344337,0.571797,0.430584,0.147841,0.0740742,-0.00111269,0.0187106,0.059288,-0.072071,0.12052,0.164038
1413393238705760512,-2.48086,3.12239,1.64332,-0.018304,0.818252,-0.0399298,0.573179,0.428174,0.12204,0.00942046,-0.0011005,0.0186556,0.0591861,-0.0719597,0.118902,0.169697
1413393238755760384,-2.46203,3.12838,1.64226,-0.0226482,0.817402,-0.0441884,0.573923,0.434451,0.088204,-0.0323024,-0.00114763,0.0188094,0.0595492,-0.0604696,0.128042,0.148502
1413393238805760512,-2.44137,3.13206,1.64024,-0.0236031,0.81636,-0.0460105,0.575224,0.437056,0.0533727,-0.0424651,-0.00113384,0.0187293,0.0593688,-0.0638323,0.121333,0.157389
1413393238855760384,-2.41795,3.13292,1.63925,-0.021639,0.816168,-0.0452256,0.575636,0.433719,0.00750083,-0.0249634,-0.0011127,0.0187107,0.0592881,-0.0720559,0.120544,0.163303
1413393238905760512,-2.39559,3.13211,1.63719,-0.0163605,0.81639,-0.0424477,0.575706,0.44781,-0.0259204,-0.0199179,-0.00116003,0.0188443,0.0596388,-0.056802,0.129137,0.141527
1413393238955760384,-2.37492,3.13096,1.63629,-0.00782286,0.816773,-0.0371821,0.575708,0.439013,-0.0576692,-0.000343152,-0.0011421,0.0187671,0.0594531,-0.0600288,0.126462,0.150895
1413393239005760512,-2.35404,3.12702,1.6375,0.00136919,0.816607,-0.0321118,0.576299,0.434435,-0.0855071,0.0236513,-0.00113388,0.0187293,0.0593689,-0.0632904,0.121723,0.156716
1413393239055760384,-2.32863,3.12241,1.63878,0.00924878,0.817073,-0.026693,0.575843,0.447905,-0.065608,0.0147794,-0.00115234,0.0188932,0.0597335,-0.0537137,0.126956,0.137063
1413393239105760512,-2.30792,3.11971,1.63802,0.0158629,0.817164,-0.0226257,0.575743,0.443958,-0.0824241,0.00535235,-0.00114771,0.0188096,0.0595498,-0.059657,0.13031,0.143618
1413393239155760384,-2.28668,3.1161,1.63892,0.0207168,0.817162,-0.0198851,0.575693,0.443214,-0.0677252,0.0294327,-0.00114213,0.0187671,0.0594533,-0.0599664,0.126941,0.150227
1413393239205760512,-2.26047,3.11181,1.64112,0.0243902,0.817604,-0.0172475,0.575006,0.456503,-0.0398098,0.00699916,-0.00115143,0.0189035,0.0598657,-0.0518596,0.122771,0.131314
1413393239255760384,-2.2394,3.11056,1.6407,0.0264989,0.817368,-0.0162647,0.575277,0.452183,-0.0433151,0.0145217,-0.0011601,0.0188445,0.0596393,-0.0558136,0.129388,0.137512
1413393239305760512,-2.21784,3.10995,1.64145,0.0290208,0.817682,-0.0153562,0.574733,0.456699,-0.0119711,0.0268493,-0.00114773,0.0188097,0.0595499,-0.059711,0.130389,0.143063
1413393239355760384,-2.19271,3.10882,1.6435,0.0296876,0.818297,-0.0147259,0.57384,0.46332,0.00954414,0.0315542,-0.00116162,0.0189061,0.0599703,-0.0471245,0.120299,0.120504
1413393239405760512,-2.16935,3.1095,1.64485,0.03034,0.81851,-0.0150956,0.573493,0.469448,0.0206469,0.0376707,-0.00115238,0.0188935,0.0597341,-0.0520272,0.124636,0.134891
1413393239455760384,-2.14647,3.11197,1.64697,0.029687,0.819118,-0.0157807,0.572639,0.474967,0.0548444,0.0481351,-0.00116012,0.0188446,0.0596395,-0.0555074,0.1291,0.137137
1413393239505760512,-2.12192,3.1149,1.65115,0.0315839,0.819153,-0.0139818,0.572534,0.48861,0.0645659,0.0738725,-0.00117498,0.0189151,0.0600529,-0.0415842,0.120407,0.112318
1413393239555760384,-2.096,3.11762,1.65507,0.0297416,0.81952,-0.0157249,0.572062,0.492413,0.0868459,0.0772661,-0.00115146,0.0189038,0.0598664,-0.0505603,0.119094,0.129122
1413393239605760512,-2.0722,3.12383,1.65935,0.0256434,0.820022,-0.0178195,0.57148,0.500557,0.12329,0.0889059,-0.00115239,0.0188936,0.0597342,-0.0518052,0.124062,0.134807
1413393239655760384,-2.04709,3.1306,1.66396,0.0179646,0.819871,-0.0223973,0.571828,0.51291,0.122342,0.102122,-0.00118892,0.0189411,0.0601354,-0.0382045,0.121116,0.105877
1413393239705760512,-2.02074,3.13556,1.66835,0.00729776,0.819679,-0.0302088,0.57198,0.516833,0.11859,0.104532,-0.00116164,0.0189063,0.059971,-0.0456771,0.117331,0.115305
1413393239755760384,-1.99453,3.14093,1.67502,-0.00122074,0.819409,-0.0357372,0.572093,0.518298,0.116273,0.106376,-0.00115145,0.0189039,0.0598666,-0.0505916,0.118414,0.128619
1413393239805760512,-1.96794,3.14771,1.67959,-0.00701367,0.819314,-0.0388463,0.571984,0.532527,0.0787953,0.101914,-0.00118973,0.0189479,0.0602053,-0.0341133,0.122973,0.09823
1413393239855760384,-1.94211,3.15056,1.68332,-0.00967705,0.820188,-0.041171,0.570529,0.531741,0.0577902,0.0801871,-0.001175,0.0189152,0.0600535,-0.0394745,0.120188,0.106734
1413393239905760512,-1.91532,3.15184,1.68858,-0.00780664,0.820992,-0.0396706,0.569507,0.536142,0.0306189,0.102258,-0.00116164,0.0189063,0.0599712,-0.0454852,0.117097,0.114167
1413393239955760384,-1.88684,3.15421,1.69316,-0.00640611,0.821078,-0.0381155,0.569507,0.554059,0.00954736,0.103406,-0.00118778,0.0189839,0.0603161,-0.0313417,0.124341,0.0974123
1413393240005760512,-1.85987,3.15423,1.69717,-0.00199799,0.820435,-0.0350487,0.570662,0.564025,-0.00973785,0.102301,-0.00118896,0.0189412,0.060136,-0.0361848,0.122516,0.101795
1413393240055760384,-1.83196,3.15265,1.70297,0.00308527,0.819817,-0.0309726,0.571779,0.564686,-0.0261155,0.116411,-0.00117502,0.0189152,0.0600537,-0.0390816,0.120592,0.106202
1413393240105760512,-1.80241,3.15134,1.71006,0.0104353,0.818327,-0.0252855,0.574102,0.572872,-0.0368986,0.120195,-0.00115701,0.0190335,0.0604373,-0.0207008,0.128086,0.108079
1413393240155760384,-1.77321,3.15091,1.71436,0.0163863,0.817401,-0.0203295,0.575478,0.576469,-0.0228034,0.0885702,-0.00118977,0.018948,0.0602058,-0.032288,0.124442,0.0947166
1413393240205760512,-1.74585,3.14955,1.71799,0.0204501,0.816452,-0.0167678,0.576807,0.559253,-0.0123716,0.0507216,-0.00118899,0.0189412,0.0601361,-0.0360595,0.122711,0.101515
1413393240255760384,-1.71834,3.14859,1.72009,0.0233948,0.816641,-0.0140871,0.5765,0.555805,-0.00170262,-0.00779583,-0.00114588,0.0190614,0.0605218,0.00103336,0.131427,0.125696
1413393240305760512,-1.68874,3.14972,1.71738,0.0222565,0.816915,-0.0140441,0.576158,0.55337,0.0198985,-0.0571373,-0.00118781,0.018984,0.0603167,-0.0298247,0.125249,0.0963892
1413393240355760384,-1.66106,3.15116,1.71319,0.0202182,0.816914,-0.0149459,0.576211,0.553696,0.0309649,-0.106004,-0.00118978,0.018948,0.0602059,-0.0320777,0.124516,0.094141
1413393240405760512,-1.63477,3.15266,1.70582,0.0157768,0.816484,-0.0183201,0.576862,0.559112,0.0411904,-0.155552,-0.00115097,0.0190494,0.060596,0.0143727,0.132453,0.138843
1413393240455760384,-1.60618,3.15404,1.69853,0.0114352,0.8159,-0.0206567,0.577711,0.561008,0.0433963,-0.196123,-0.00115697,0.0190337,0.0604379,-0.0156261,0.130815,0.113792
1413393240505760512,-1.5767,3.15686,1.68792,0.00532456,0.815851,-0.024865,0.577703,0.560799,0.0407586,-0.208132,-0.00118781,0.0189841,0.0603168,-0.0295615,0.125391,0.0967359
1413393240555760384,-1.55435,3.16035,1.67694,0.00132345,0.814756,-0.0280004,0.579126,0.530241,0.0379576,-0.186918,-0.0011471,0.0190583,0.0607039,0.010214,0.128595,0.142307
1413393240605760512,-1.52688,3.15989,1.66958,-0.00220631,0.814511,-0.0307017,0.579331,0.520873,0.0267952,-0.140229,-0.00114582,0.0190616,0.0605224,0.0120106,0.135827,0.137493
1413393240655760384,-1.49627,3.16057,1.66654,-0.00315162,0.814846,-0.0320302,0.578783,0.578516,0.00450115,-0.065431,-0.00115694,0.0190338,0.0604381,-0.0141993,0.131593,0.115677
1413393240705760512,-1.47376,3.1626,1.66364,-0.00184751,0.814536,-0.0327452,0.579186,0.581559,-0.0135872,0.0704521,-0.00114089,0.0191036,0.060808,-0.00284168,0.125647,0.14254
1413393240755760384,-1.44206,3.16051,1.66805,0.00244791,0.814026,-0.0313454,0.579977,0.58026,-0.020296,0.127873,-0.00115093,0.0190496,0.0605967,0.0239337,0.135446,0.148885
1413393240805760512,-1.41177,3.1586,1.6777,0.00693111,0.812785,-0.029863,0.581757,0.588686,-0.0304445,0.162176,-0.0011458,0.0190617,0.0605226,0.0140095,0.136623,0.139382
1413393240855760384,-1.38954,3.15861,1.68476,0.0123692,0.810902,-0.0277333,0.584394,0.554412,-0.0264025,0.139115,-0.00115012,0.0191241,0.0609143,-0.018699,0.122395,0.142122
1413393240905760512,-1.35965,3.15755,1.68924,0.01573,0.808463,-0.0271506,0.587711,0.533326,-0.0342377,0.0688735,-0.00114707,0.0190585,0.0607045,0.0111877,0.127241,0.145805
1413393240955760384,-1.33164,3.15545,1.68806,0.0192189,0.805785,-0.0268762,0.591286,0.495704,-0.0219122,-0.0152038,-0.00115092,0.0190496,0.0605968,0.0243106,0.135438,0.149395
1413393241005760512,-1.31353,3.15382,1.69068,0.0214117,0.803057,-0.0270126,0.594905,0.483789,-0.0197245,-0.0503173,-0.00115878,0.0191565,0.06099,-0.0279821,0.11994,0.145054
1413393241055760384,-1.28652,3.15408,1.68569,0.021732,0.800841,-0.0283785,0.597809,0.470502,-0.0199017,-0.116961,-0.00114087,0.0191037,0.0608085,-0.0087244,0.121892,0.141826
1413393241105760512,-1.26267,3.15405,1.67465,0.0192369,0.799909,-0.0318438,0.598968,0.448416,-0.00210688,-0.205416,-0.00114706,0.0190585,0.0607047,0.0102496,0.126466,0.145463
1413393241155760384,-1.24639,3.1513,1.6689,0.0147632,0.799896,-0.0370264,0.598814,0.419296,-0.00942846,-0.235699,-0.00115593,0.0192142,0.0610737,-0.0307489,0.118341,0.145959
1413393241205760512,-1.22291,3.1521,1.65605,0.00992422,0.800541,-0.0417333,0.59774,0.403198,-0.0106439,-0.264875,-0.00115012,0.0191242,0.0609149,-0.026131,0.118845,0.141259
1413393241255760384,-1.20165,3.1521,1.63966,0.00610221,0.801551,-0.046087,0.596116,0.377476,-0.0205532,-0.28443,-0.00114085,0.0191038,0.0608087,-0.00977472,0.121315,0.141451
1413393241305760512,-1.18861,3.14793,1.63071,0.00326203,0.803906,-0.0500754,0.592636,0.360807,-0.0440971,-0.246635,-0.00115989,0.0192334,0.0611577,-0.0287476,0.118092,0.145278
1413393241355760384,-1.16888,3.14626,1.61783,0.00339345,0.809175,-0.0515036,0.585297,0.34345,-0.0572844,-0.242086,-0.0011588,0.0191566,0.0609906,-0.0325652,0.118326,0.145843
1413393241405760512,-1.15007,3.14385,1.60474,0.00341384,0.812625,-0.0529948,0.580363,0.341347,-0.0815558,-0.237041,-0.00115011,0.0191242,0.0609151,-0.0268889,0.118525,0.141218
1413393241455760384,-1.13641,3.13685,1.59631,0.00649681,0.815261,-0.0527592,0.576649,0.339827,-0.107773,-0.195156,-0.00115788,0.0192361,0.0612496,-0.0258925,0.116175,0.145031
1413393241505760512,-1.11907,3.13214,1.58687,0.0111063,0.816536,-0.0502724,0.574995,0.341809,-0.112804,-0.158928,-0.00115594,0.0192144,0.0610742,-0.0317114,0.118229,0.147236
1413393241555760384,-1.1001,3.12651,1.57854,0.0162386,0.816065,-0.0474307,0.575782,0.349114,-0.134868,-0.154172,-0.00115881,0.0191566,0.0609907,-0.032723,0.118334,0.146137
1413393241605760512,-1.08474,3.11838,1.57186,0.0222013,0.814376,-0.0441204,0.578233,0.350418,-0.133247,-0.154803,-0.00115651,0.0192793,0.0613407,-0.0246167,0.113127,0.144484
1413393241655760384,-1.06745,3.11231,1.56414,0.0265033,0.81329,-0.040885,0.579815,0.345283,-0.121367,-0.14104,-0.00115991,0.0192335,0.0611582,-0.0273986,0.118479,0.145659
1413393241705760512,-1.04957,3.10665,1.55762,0.0309203,0.811971,-0.0375961,0.581665,0.341213,-0.120214,-0.139624,-0.00115594,0.0192145,0.0610744,-0.0315453,0.118336,0.147339
1413393241755760384,-1.03399,3.10023,1.54979,0.0331003,0.811669,-0.0363669,0.582044,0.33773,-0.110367,-0.134237,-0.00117533,0.0193441,0.0614035,-0.0249944,0.110603,0.142921
1413393241805760512,-1.01605,3.09506,1.54337,0.0351759,0.812487,-0.0341623,0.580914,0.334045,-0.0868772,-0.13488,-0.00115789,0.0192362,0.0612502,-0.0241073,0.115466,0.14511
1413393241855760384,-0.999492,3.09147,1.53718,0.036154,0.813219,-0.0326291,0.579917,0.337507,-0.0767435,-0.122291,-0.00115991,0.0192336,0.0611584,-0.0271037,0.118499,0.145593
1413393241905760512,-0.984217,3.08813,1.53157,0.0366749,0.812237,-0.0317592,0.581307,0.332922,-0.0591125,-0.0828448,-0.00117041,0.0193582,0.0614864,-0.0263015,0.109947,0.139861
1413393241955760384,-0.966296,3.08534,1.52776,0.0370564,0.81007,-0.0296975,0.584408,0.326256,-0.0289978,-0.0833711,-0.00115651,0.0192795,0.0613412,-0.0237206,0.111284,0.144539
1413393242005760512,-0.94973,3.08454,1.52341,0.036491,0.8085,-0.0286948,0.586663,0.323522,-0.0167808,-0.0836463,-0.00115788,0.0192362,0.0612503,-0.0239511,0.115196,0.145232
1413393242055760384,-0.936535,3.08539,1.51985,0.0361536,0.805777,-0.0269414,0.590501,0.31243,0.0154268,-0.0614963,-0.00118772,0.0193428,0.0615606,-0.0295598,0.109297,0.135538
1413393242105760512,-0.91999,3.08532,1.5161,0.0357352,0.803232,-0.0253695,0.594052,0.296066,0.0326491,-0.0544077,-0.00117535,0.0193444,0.061404,-0.0252404,0.108779,0.142202
1413393242155760384,-0.905078,3.08729,1.51397,0.033313,0.799743,-0.025794,0.598863,0.272176,0.0449747,-0.0456602,-0.0011565,0.0192796,0.0613414,-0.0237426,0.110929,0.144489
1413393242205760512,-0.894628,3.09157,1.51274,0.0296826,0.795964,-0.0262652,0.604045,0.241977,0.0765375,-0.0298927,-0.00119209,0.0193964,0.0616661,-0.0319837,0.109567,0.132159
1413393242255760384,-0.882232,3.09437,1.51069,0.0277651,0.793435,-0.0264354,0.607447,0.207376,0.0754702,-0.0245874,-0.00117041,0.0193585,0.0614869,-0.0271409,0.109188,0.137754
1413393242305760512,-0.872452,3.09795,1.50927,0.0255214,0.792309,-0.0275036,0.608966,0.166139,0.0805007,-0.0209803,-0.00117537,0.0193445,0.0614041,-0.0253658,0.108601,0.141905
1413393242355760384,-0.866235,3.10389,1.50931,0.0213875,0.793552,-0.0292528,0.607423,0.14305,0.100443,-0.0306258,-0.00121712,0.019412,0.0617337,-0.0325413,0.109427,0.129797
1413393242405760512,-0.859561,3.10876,1.50782,0.0156386,0.796789,-0.0325818,0.603177,0.10505,0.0995594,-0.0246255,-0.00118775,0.0193429,0.0615611,-0.0311413,0.109178,0.132591
1413393242455760384,-0.854712,3.11303,1.50596,0.00910755,0.801732,-0.0368152,0.59648,0.0751553,0.09686,-0.0228596,-0.00117042,0.0193585,0.061487,-0.0272611,0.109216,0.137328
1413393242505760512,-0.85147,3.11836,1.50593,0.00166743,0.807764,-0.041287,0.588057,0.0602155,0.0863205,-0.0292833,-0.00125742,0.0194006,0.061801,-0.0341181,0.108892,0.131574
1413393242555760384,-0.848857,3.12202,1.50527,-0.00360807,0.813028,-0.0446148,0.580501,0.0565108,0.0612802,-8.31149e-05,-0.00119213,0.0193966,0.0616666,-0.0334021,0.10987,0.130085
1413393242605760512,-0.846256,3.12432,1.50488,-0.00761892,0.817047,-0.0473328,0.574574,0.0535174,0.0301182,0.00548629,-0.00118777,0.0193429,0.0615613,-0.0314418,0.109206,0.13225
1413393242655760384,-0.842998,3.12563,1.50566,-0.00963252,0.819766,-0.0480881,0.570595,0.0705726,0.00806283,0.02805,-0.00126613,0.0194135,0.0618507,-0.0354756,0.108372,0.134269
1413393242705760512,-0.839223,3.12468,1.50772,-0.0115687,0.820544,-0.0496801,0.569303,0.084871,-0.0320311,0.0290142,-0.00121721,0.0194121,0.0617342,-0.0330152,0.109862,0.129002
1413393242755760384,-0.834622,3.12268,1.50975,-0.0154035,0.820227,-0.0512768,0.569527,0.0942471,-0.0535259,0.0583603,-0.00119214,0.0193966,0.0616668,-0.0334543,0.109951,0.130008
1413393242805760512,-0.830449,3.11911,1.51197,-0.0169148,0.81954,-0.0496781,0.570613,0.108535,-0.0942427,0.0625765,-0.00127916,0.019452,0.0619469,-0.0368682,0.109097,0.134776
1413393242855760384,-0.823348,3.1133,1.5162,-0.0164879,0.818992,-0.0451005,0.571792,0.120878,-0.12415,0.0821942,-0.00125756,0.0194006,0.0618015,-0.0344528,0.108677,0.132244
1413393242905760512,-0.81708,3.10679,1.52037,-0.0110922,0.818631,-0.0347934,0.573159,0.13363,-0.137253,0.0708643,-0.00121724,0.0194122,0.0617344,-0.0329482,0.109981,0.129045
1413393242955760384,-0.812417,3.09932,1.52377,-0.00766162,0.819698,-0.0247405,0.572211,0.1335,-0.168395,0.0917838,-0.00129003,0.0194853,0.0620386,-0.0375434,0.113605,0.133141
1413393243005760512,-0.803409,3.09105,1.52894,-0.00566314,0.821516,-0.0140891,0.569984,0.146839,-0.159483,0.093041,-0.00126627,0.0194135,0.0618512,-0.036095,0.107671,0.135568
1413393243055760384,-0.795108,3.08294,1.53389,-0.00585205,0.822782,-0.00248384,0.568322,0.160502,-0.156222,0.0797457,-0.00125762,0.0194006,0.0618016,-0.0345676,0.108527,0.132494
1413393243105760512,-0.790219,3.07537,1.53797,-0.00824227,0.823908,0.00832676,0.566603,0.173847,-0.158019,0.0965351,-0.00127575,0.0194998,0.0621369,-0.0376408,0.119739,0.128439
1413393243155760384,-0.779028,3.06824,1.54378,-0.0135378,0.824063,0.0194069,0.566004,0.190932,-0.131065,0.117148,-0.00127928,0.0194521,0.0619474,-0.037474,0.108986,0.135665
1413393243205760512,-0.768117,3.06142,1.55026,-0.019976,0.821453,0.0304858,0.569111,0.205915,-0.124374,0.142072,-0.00126629,0.0194135,0.0618513,-0.0361878,0.107568,0.135738
1413393243255760384,-0.763,3.05619,1.55747,-0.0254966,0.816201,0.0395708,0.575847,0.210374,-0.132099,0.14333,-0.00125962,0.0195083,0.0622455,-0.0390846,0.124245,0.122447
1413393243305760512,-0.74955,3.04954,1.56366,-0.0307741,0.811446,0.0481716,0.581626,0.208792,-0.107203,0.0957393,-0.00129012,0.0194855,0.0620391,-0.0374404,0.114853,0.133687
1413393243355760384,-0.737622,3.04329,1.56718,-0.0366272,0.807657,0.054589,0.585977,0.208576,-0.124586,0.0460688,-0.0012793,0.0194521,0.0619476,-0.037483,0.109107,0.135674
1413393243405760512,-0.733276,3.03925,1.56825,-0.0402757,0.803293,0.0598441,0.5912,0.18902,-0.112918,-0.00164931,-0.00125231,0.0195178,0.0623426,-0.0401525,0.128816,0.119157
1413393243455760384,-0.721354,3.033,1.56696,-0.0445623,0.801163,0.0646148,0.593277,0.171954,-0.100491,-0.0372878,-0.0012758,0.0195,0.0621374,-0.0370004,0.122039,0.128585
1413393243505760512,-0.711888,3.02664,1.56397,-0.0483864,0.799342,0.0683137,0.595017,0.155682,-0.109035,-0.098147,-0.00129015,0.0194856,0.0620393,-0.0373421,0.115127,0.13375
1413393243555760384,-0.70882,3.02355,1.55705,-0.051104,0.797728,0.0712522,0.596608,0.132786,-0.0973878,-0.140912,-0.00125932,0.0195461,0.0624276,-0.0406623,0.135596,0.118096
1413393243605760512,-0.701341,3.01886,1.54973,-0.0532644,0.797704,0.0740339,0.596113,0.114051,-0.0981424,-0.145784,-0.00125965,0.0195085,0.0622461,-0.0386836,0.126746,0.122155
1413393243655760384,-0.694443,3.01236,1.54195,-0.0548743,0.798102,0.0764529,0.595128,0.0882561,-0.100033,-0.153182,-0.00127582,0.0195001,0.0621375,-0.0368893,0.122352,0.1286
1413393243705760512,-0.693133,3.00934,1.53393,-0.0549547,0.798893,0.0787317,0.59376,0.0674063,-0.0789837,-0.121921,-0.00127318,0.0195497,0.0625025,-0.040101,0.138786,0.120321
1413393243755760384,-0.690895,3.0062,1.52879,-0.0554373,0.800617,0.0804083,0.591163,0.0432193,-0.0798543,-0.109464,-0.00125233,0.019518,0.0623431,-0.0400784,0.130826,0.119046
1413393243805760512,-0.68796,3.0013,1.5238,-0.0551124,0.80216,0.0820956,0.588865,0.0205739,-0.0784096,-0.0805304,-0.00125966,0.0195085,0.0622462,-0.0386903,0.127044,0.122091
1413393243855760384,-0.688528,2.99808,1.51856,-0.0564752,0.802476,0.0820225,0.588316,0.00295053,-0.0610454,-0.0721851,-0.00128921,0.0195489,0.0625819,-0.0395486,0.141643,0.121434
1413393243905760512,-0.689226,2.99565,1.51689,-0.0559236,0.802871,0.0831132,0.587677,-0.0102139,-0.0604679,-0.0373245,-0.00125937,0.0195463,0.0624282,-0.0405347,0.137543,0.119211
1413393243955760384,-0.689608,2.99301,1.51546,-0.0560477,0.802995,0.083835,0.587392,-0.0220528,-0.0541952,-0.0266408,-0.00125235,0.019518,0.0623433,-0.0400959,0.131007,0.119027
1413393244005760512,-0.691535,2.99036,1.51303,-0.0560071,0.803105,0.0840749,0.587211,-0.0359263,-0.0425597,-0.0217557,-0.00129934,0.0195768,0.0626644,-0.0395508,0.1382,0.122651
1413393244055760384,-0.69338,2.98821,1.51279,-0.0547739,0.802751,0.084786,0.587709,-0.0469981,-0.0345812,-0.000894696,-0.00127326,0.0195499,0.062503,-0.039788,0.139902,0.122254
1413393244105760512,-0.696701,2.98719,1.51372,-0.053763,0.803058,0.0855343,0.587274,-0.0610917,-0.023445,0.0220172,-0.0012594,0.0195463,0.0624283,-0.0404842,0.137837,0.119515
1413393244155760384,-0.704656,2.98891,1.51546,-0.0531154,0.803248,0.0873029,0.586813,-0.0835929,-0.0110589,0.00544132,-0.001314,0.0196107,0.0627395,-0.0479562,0.125355,0.119753
1413393244205760512,-0.704633,2.98587,1.51339,-0.0557394,0.802771,0.0890981,0.586952,-0.0938067,0.015805,0.00752976,-0.00128931,0.019549,0.0625825,-0.0390617,0.142499,0.12338
1413393244255760384,-0.709073,2.98718,1.51485,-0.0579875,0.802922,0.0937487,0.585803,-0.104937,0.0295217,0.0138853,-0.00127328,0.0195499,0.0625031,-0.0397005,0.139932,0.122636
1413393244305760512,-0.720558,2.99239,1.51797,-0.060438,0.803068,0.100102,0.584302,-0.117953,0.0499081,0.0318903,-0.00129804,0.0196356,0.0628328,-0.0561542,0.123413,0.114616
1413393244355760384,-0.721359,2.99256,1.51626,-0.0657129,0.802788,0.106272,0.583027,-0.1281,0.0767302,0.0150535,-0.00129942,0.0195769,0.0626649,-0.0396169,0.137879,0.122892
1413393244405760512,-0.727982,2.99592,1.51545,-0.0707214,0.80129,0.111567,0.583512,-0.134783,0.0699841,-0.0209198,-0.00128933,0.019549,0.0625826,-0.0389994,0.142624,0.123531
1413393244455760384,-0.738913,3.00103,1.51668,-0.0760333,0.799515,0.115657,0.584482,-0.15126,0.0809319,-0.0525005,-0.00129587,0.0196311,0.0628983,-0.0640134,0.135793,0.114172
1413393244505760512,-0.747178,3.00682,1.51299,-0.0818556,0.79869,0.119266,0.584097,-0.169078,0.085387,-0.116205,-0.0013141,0.0196107,0.06274,-0.0512535,0.123857,0.11656
1413393244555760384,-0.752689,3.00789,1.50166,-0.0874089,0.797183,0.121083,0.584977,-0.192568,0.0720836,-0.188135,-0.00129944,0.019577,0.0626651,-0.0397413,0.137647,0.122628
1413393244605760512,-0.764572,3.01246,1.49428,-0.0916203,0.797207,0.123211,0.583854,-0.188892,0.0865294,-0.206128,-0.00129897,0.0196309,0.0629875,-0.0672664,0.142535,0.115344
1413393244655760384,-0.775595,3.01914,1.48646,-0.095601,0.797689,0.125522,0.582063,-0.187149,0.0832055,-0.179677,-0.00129809,0.0196356,0.0628334,-0.0602358,0.122984,0.111432
1413393244705760512,-0.785422,3.02225,1.47858,-0.0988965,0.796764,0.127381,0.582375,-0.236106,0.0619141,-0.122632,-0.00131412,0.0196107,0.0627401,-0.0520974,0.123611,0.115775
1413393244755760384,-0.796826,3.02319,1.47224,-0.103635,0.79722,0.126266,0.581169,-0.257421,0.0567856,-0.109711,-0.00129253,0.0196358,0.0630686,-0.067331,0.147282,0.115923
1413393244805760512,-0.810648,3.02699,1.46916,-0.108785,0.797255,0.125095,0.580433,-0.259456,0.0479987,-0.0478149,-0.0012959,0.0196311,0.0628988,-0.0669474,0.137946,0.115726
1413393244855760384,-0.824302,3.03002,1.46885,-0.112424,0.798035,0.124621,0.578767,-0.265609,0.0318053,0.0352117,-0.00129809,0.0196356,0.0628335,-0.0606566,0.123141,0.111252
1413393244905760512,-0.83617,3.02948,1.47324,-0.114944,0.797659,0.122872,0.579164,-0.238736,0.0224876,0.13259,-0.00128154,0.0196462,0.0631622,-0.0645461,0.14966,0.114437
1413393244955760384,-0.848267,3.03059,1.48106,-0.11541,0.797497,0.122996,0.579268,-0.248088,0.00349202,0.201691,-0.001299,0.019631,0.062988,-0.0680902,0.145495,0.118952
1413393245005760512,-0.860756,3.03068,1.49029,-0.112693,0.798845,0.124964,0.577521,-0.246193,-0.0187854,0.186855,-0.00129591,0.0196311,0.0628989,-0.0669899,0.138575,0.116602
1413393245055760384,-0.875868,3.03189,1.49945,-0.110473,0.800902,0.1258,0.574914,-0.258457,-0.0270011,0.1566,-0.00129322,0.0196665,0.0632313,-0.0603106,0.148034,0.110688
1413393245105760512,-0.886324,3.02709,1.50527,-0.107545,0.803499,0.127001,0.571571,-0.257237,-0.0341672,0.106099,-0.00129255,0.0196359,0.0630691,-0.0664949,0.149863,0.118609
1413393245155760384,-0.898655,3.02518,1.50964,-0.10577,0.806624,0.127455,0.567385,-0.245678,-0.0495175,0.0614986,-0.00129902,0.019631,0.0629881,-0.0679408,0.145881,0.119409
1413393245205760512,-0.913528,3.02525,1.51238,-0.103637,0.809539,0.128094,0.563469,-0.242493,-0.0505071,0.0165265,-0.00130061,0.0196703,0.0632983,-0.0574221,0.148122,0.108659
1413393245255760384,-0.923016,3.02032,1.51153,-0.101182,0.810752,0.129028,0.561956,-0.233403,-0.0564457,-0.0371872,-0.00128155,0.0196463,0.0631627,-0.0628555,0.151079,0.114615
1413393245305760512,-0.934083,3.01696,1.50787,-0.0990168,0.811548,0.130074,0.560952,-0.215672,-0.0511722,-0.0920472,-0.00129256,0.0196359,0.0630693,-0.0662916,0.15007,0.118756
1413393245355760384,-0.947,3.01746,1.50258,-0.0966116,0.810932,0.131578,0.561911,-0.203799,-0.042139,-0.138943,-0.00130266,0.0196913,0.0633613,-0.0545109,0.147086,0.106658
1413393245405760512,-0.956759,3.01609,1.49444,-0.0947872,0.810032,0.132552,0.563289,-0.1829,-0.0471762,-0.170161,-0.00129324,0.0196666,0.0632318,-0.0584059,0.147353,0.108204
1413393245455760384,-0.963774,3.01086,1.48527,-0.0922984,0.808529,0.13357,0.565616,-0.187076,-0.0390793,-0.20725,-0.00128155,0.0196463,0.0631628,-0.0626175,0.151002,0.114389
1413393245505760512,-0.975319,3.01136,1.47373,-0.0906901,0.807067,0.134678,0.567697,-0.180894,-0.0257016,-0.238273,-0.00130475,0.0196991,0.0634582,-0.0505932,0.145441,0.103809
1413393245555760384,-0.984322,3.0102,1.46165,-0.0885124,0.805035,0.135542,0.570713,-0.175825,-0.0256383,-0.231131,-0.00130065,0.0196704,0.0632988,-0.0558027,0.14701,0.106392
1413393245605760512,-0.993019,3.00997,1.45044,-0.0865657,0.803227,0.136099,0.573419,-0.176372,-0.0131195,-0.226242,-0.00129325,0.0196667,0.063232,-0.0581901,0.14698,0.107689
1413393245655760384,-1.00178,3.00839,1.44009,-0.0848344,0.801622,0.136335,0.575863,-0.178576,-0.001289,-0.220854,-0.00131433,0.0197131,0.0635438,-0.044325,0.141958,0.101462
1413393245705760512,-1.01067,3.00882,1.42961,-0.0820052,0.800668,0.136825,0.577482,-0.177846,0.00892199,-0.195899,-0.0013027,0.0196914,0.0633618,-0.053009,0.145978,0.105322
1413393245755760384,-1.01992,3.00988,1.42022,-0.0799475,0.801218,0.136241,0.577146,-0.186467,0.0224661,-0.181658,-0.00130066,0.0196704,0.0632989,-0.0555961,0.14696,0.106305
1413393245805760512,-1.0305,3.01071,1.41128,-0.0790295,0.801942,0.134513,0.576672,-0.192274,0.0361725,-0.172203,-0.00131252,0.0197437,0.0635952,-0.0355682,0.138265,0.101556
1413393245855760384,-1.03887,3.01316,1.40338,-0.0798862,0.802597,0.131745,0.576281,-0.19612,0.0484194,-0.147586,-0.00130478,0.0196992,0.0634588,-0.0488142,0.144444,0.102728
1413393245905760512,-1.04883,3.01611,1.39628,-0.0815491,0.804329,0.12812,0.574448,-0.198405,0.0587712,-0.148015,-0.00130271,0.0196914,0.0633619,-0.0528256,0.145831,0.105192
1413393245955760384,-1.06002,3.01867,1.38788,-0.0854329,0.805906,0.123343,0.572716,-0.199421,0.0692765,-0.148274,-0.00131321,0.0197532,0.0636536,-0.0267223,0.136409,0.102294
