#timestamp, p_RS_R_x [m], p_RS_R_y [m], p_RS_R_z [m], q_RS_w [], q_RS_x [], q_RS_y [], q_RS_z [], v_RS_R_x [m s^-1], v_RS_R_y [m s^-1], v_RS_R_z [m s^-1], b_w_RS_S_x [rad s^-1], b_w_RS_S_y [rad s^-1], b_w_RS_S_z [rad s^-1], b_a_RS_S_x [m s^-2], b_a_RS_S_y [m s^-2], b_a_RS_S_z [m s^-2]
1413393212255760384,-1.07611,0.492467,1.32992,0.60264,-0.00183051,-0.798003,0.00349643,-0.00143208,0.00646873,0.00145986,-0.00027101,0.00308865,0.0105573,-0.00128825,2.64187e-05,0.000355641
1413393212305760512,-1.20714,0.538373,1.44778,0.602727,-0.00225217,-0.797938,0.00319658,-0.000900356,0.00229652,0.000747691,-0.000265951,0.00317296,0.0108834,-0.0018673,3.71831e-05,0.000518498
1413393212355760384,-1.44757,0.71863,1.4303,0.602731,0.00314281,-0.797905,0.00730397,-0.00441054,-0.000910786,0.000594913,-0.000286273,0.0032506,0.0111768,-0.00232819,5.63794e-05,0.000684897
1413393212405760512,-1.33573,0.631203,1.51595,0.602254,0.0235473,-0.797634,0.0227114,-0.00342843,0.00136637,0.000253598,-0.000281507,0.00333753,0.011489,-0.00257199,7.11094e-05,0.000776062
1413393212455760384,-1.39462,0.680771,1.88679,0.602237,0.0186023,-0.797876,0.0189455,-0.00133642,-0.00343093,0.00135353,-0.000267649,0.00341347,0.0118096,-0.00295624,0.000114774,0.00113627
1413393212505760512,-1.39046,0.675996,1.70653,0.60234,0.0159029,-0.797904,0.0168541,-0.00156414,-0.00268932,0.00228497,-0.000271266,0.00350281,0.0121052,-0.00367612,0.000120139,0.00138036
1413393212555760384,-1.39382,0.680638,1.57957,0.602314,0.019641,-0.797776,0.0196385,-0.00162912,-0.00569274,-0.00127278,-0.000233702,0.00356789,0.0123907,-0.00385807,5.88466e-05,0.001542
1413393212605760512,-1.39065,0.673811,1.48552,0.602477,0.0138803,-0.797866,0.0154345,-0.00184298,0.00159102,-0.000491891,-0.000291927,0.00363135,0.0126976,-0.00452088,3.58184e-05,0.00167098
1413393212655760384,-1.39057,0.678801,1.53913,0.602368,0.0181517,-0.797799,0.0184474,-0.00195898,-0.00108423,-0.000323329,-0.000296891,0.0037351,0.0130291,-0.00520263,8.03791e-05,0.00187076
1413393212705760512,-1.38789,0.675258,1.5484,0.602495,0.0156858,-0.797787,0.017036,0.00154669,-0.00308102,0.000142759,-0.00029166,0.00379556,0.0132948,-0.0057263,0.000141204,0.00189187
1413393212755760384,-1.38392,0.669624,1.38774,0.6025,0.0149255,-0.797819,0.0159862,0.00131007,0.0014419,0.00124339,-0.00029833,0.00389227,0.0136104,-0.0066216,0.000342659,0.00204452
1413393212805760512,-1.40525,0.697988,1.49114,0.602028,0.0289592,-0.797496,0.0269028,0.000421045,-0.00185534,0.000843491,-0.000294345,0.0039766,0.0139062,-0.00694866,0.000884358,0.00254959
1413393212855760384,-1.41101,0.704642,1.50158,0.601856,0.0305312,-0.797528,0.0280478,5.70713e-07,0.00148327,0.000202846,-0.000301029,0.00405004,0.0141849,-0.00715651,0.00141848,0.00341106
1413393212905760512,-1.40105,0.695,1.5762,0.602119,0.023591,-0.797732,0.0228365,-0.00148478,0.0014988,-0.000539071,-0.000324484,0.004143,0.0144786,-0.00832313,0.00144477,0.00387506
1413393212955760384,-1.39947,0.692865,1.48957,0.602117,0.0232322,-0.797746,0.0227221,-0.00217362,-0.00186621,-0.00193185,-0.000331945,0.00422227,0.0147388,-0.00903466,0.00164335,0.00422669
1413393213005760512,-1.39949,0.691471,1.38183,0.602159,0.0236417,-0.797696,0.0229712,-0.000804111,0.00132034,-0.00117658,-0.000344569,0.00431388,0.0150199,-0.00986972,0.0016912,0.00462968
1413393213055760384,-1.37899,0.667337,1.65475,0.602805,0.00994305,-0.797731,0.0124147,-0.00176747,-0.000218839,-0.00137206,-0.000381025,0.00439376,0.0152799,-0.0117049,-0.000918951,0.00172381
1413393213105760512,-1.39548,0.687402,1.51677,0.602301,0.0208728,-0.797717,0.0211207,-0.00224692,-0.00101241,-0.00476092,-0.000361638,0.00447806,0.015583,-0.0111349,0.00191601,0.00449345
1413393213155760384,-1.39576,0.687845,1.50467,0.602193,0.0215926,-0.797767,0.0215938,-0.00129666,0.000388919,-0.00122798,-0.000370273,0.00455978,0.0158657,-0.0118051,0.001963,0.0046735
1413393213205760512,-1.39417,0.685926,1.51283,0.602248,0.0206709,-0.797768,0.0209103,0.00037401,0.00123846,-0.000126822,-0.000376722,0.00463897,0.0161349,-0.0122978,0.00193212,0.00468807
1413393213255760384,-1.39457,0.686127,1.512,0.602244,0.020898,-0.797763,0.0209845,0.00194058,0.000165976,0.00268328,-0.000377303,0.00472407,0.0164125,-0.0130451,0.00210639,0.0047058
1413393213305760512,-1.39402,0.68563,1.51035,0.602289,0.0207409,-0.797737,0.0208131,0.00121657,-0.00179823,0.00291398,-0.000376328,0.00479722,0.0166732,-0.0130344,0.00244136,0.00482382
1413393213355760384,-1.41245,0.70893,1.32343,0.601676,0.0331989,-0.79745,0.0309502,0.0021839,0.00228418,0.00097875,-0.000369797,0.00486428,0.0169588,-0.0121759,0.00411409,0.00718287
1413393213405760512,-1.38318,0.668879,1.60381,0.603062,0.0104856,-0.797529,0.0123794,0.0012069,0.00151788,0.00247299,-0.00042057,0.00495686,0.0172052,-0.0164185,-0.00457488,-0.00215776
1413393213455760384,-1.38255,0.668014,1.58093,0.60316,0.0117132,-0.797422,0.0133971,-0.00028937,-0.00155309,0.00084973,-0.000417268,0.00502557,0.0174632,-0.0169944,-0.00502482,-0.00441423
1413393213505760512,-1.38265,0.66809,1.58202,0.603128,0.0118701,-0.797445,0.0133578,-0.00172414,-0.000906565,0.00147409,-0.000424798,0.00510534,0.0177174,-0.0172482,-0.00524222,-0.00449522
1413393213555760384,-1.38254,0.66799,1.58443,0.603108,0.0119337,-0.797458,0.0133719,-0.000778682,0.000892915,0.00213872,-0.000444706,0.00517714,0.0179721,-0.0173616,-0.00549693,-0.00467992
1413393213605760512,-1.3827,0.668231,1.58345,0.603106,0.0118704,-0.797461,0.0133974,0.000260658,0.00222882,0.00140434,-0.00045969,0.00524967,0.0182393,-0.0174708,-0.00558434,-0.00503579
1413393213655760384,-1.3827,0.668284,1.58807,0.603151,0.0118751,-0.797428,0.0132942,0.000346887,0.000295073,-0.0001581,-0.000475475,0.00532587,0.0185145,-0.0184135,-0.00586348,-0.0046442
1413393213705760512,-1.38269,0.668207,1.58688,0.60315,0.0116898,-0.797431,0.0132887,0.00066277,-0.0018215,-0.000460005,-0.000475264,0.00539028,0.0187303,-0.0186257,-0.00583972,-0.00514049
1413393213755760384,-1.38327,0.668823,1.58908,0.603156,0.0116926,-0.797426,0.0133349,0.00124877,-0.000385408,-0.00194689,-0.00047897,0.00546725,0.0189825,-0.0193104,-0.00605736,-0.00494484
1413393213805760512,-1.38339,0.6686,1.58911,0.60319,0.0115788,-0.797404,0.0132157,0.00039085,-0.000155412,-0.00457778,-0.000487877,0.00553571,0.0192047,-0.0196252,-0.00597778,-0.00513406
1413393213855760384,-1.38317,0.668196,1.58676,0.603229,0.011335,-0.797381,0.0130648,-0.000464355,-0.00134794,-0.00265473,-0.000493201,0.00559601,0.0194419,-0.0196338,-0.00598931,-0.00524316
1413393213905760512,-1.38307,0.667988,1.58813,0.603181,0.0112569,-0.79742,0.0129832,0.000522746,-0.00340533,-0.00300896,-0.000510906,0.00567495,0.0197002,-0.0201876,-0.00632437,-0.00541058
1413393213955760384,-1.38327,0.668091,1.58849,0.603132,0.0113285,-0.797454,0.0130628,0.00152123,-0.00368419,-0.000468107,-0.00052855,0.00573874,0.0199369,-0.0205408,-0.00677375,-0.00514342
1413393214005760512,-1.38255,0.667382,1.59087,0.603028,0.0110955,-0.797538,0.0129361,0.000909615,0.0102533,0.00281126,-0.000513898,0.00580447,0.020184,-0.0209609,-0.00635319,-0.00628843
1413393214055760384,-1.38117,0.666549,1.58932,0.603176,0.0105806,-0.797442,0.0123748,0.00264454,0.00713569,0.000524134,-0.000515487,0.00587629,0.0204262,-0.0216998,-0.00617884,-0.00729085
1413393214105760512,-1.37925,0.665003,1.5892,0.602922,0.0101614,-0.797644,0.012052,0.000460144,0.00255462,0.00172415,-0.000507935,0.00594589,0.020665,-0.0219725,-0.00620097,-0.00812722
1413393214155760384,-1.37736,0.663403,1.59091,0.603151,0.0096033,-0.797484,0.0116531,0.00270403,8.92953e-05,0.000597136,-0.000507149,0.00599215,0.0208805,-0.0215912,-0.00620006,-0.00855612
1413393214205760512,-1.3757,0.6621,1.59291,0.603086,0.00915653,-0.797541,0.011479,0.000203034,0.00211355,0.000305468,-0.000517028,0.00606845,0.021104,-0.021415,-0.00647831,-0.0077405
1413393214255760384,-1.37485,0.661503,1.59043,0.603156,0.00909185,-0.797495,0.0110542,-8.70253e-05,0.000734842,0.000342598,-0.000509992,0.00610876,0.021308,-0.0210916,-0.00577267,-0.00866895
1413393214305760512,-1.37346,0.660431,1.59529,0.603154,0.00843047,-0.797506,0.010842,0.000512852,-0.00316881,-0.00105659,-0.000522031,0.00617541,0.0215554,-0.022596,-0.00620497,-0.00811197
1413393214355760384,-1.37245,0.659212,1.60211,0.603218,0.0081305,-0.797465,0.0105725,-7.76402e-05,0.00138574,0.000787301,-0.00051861,0.00626281,0.0218314,-0.024566,-0.0065497,-0.00837307
1413393214405760512,-1.37196,0.658538,1.60585,0.603194,0.00799493,-0.797487,0.0103758,0.00021683,-0.000579252,8.75998e-05,-0.000512734,0.00632345,0.022064,-0.0254196,-0.00680707,-0.00910485
1413393214455760384,-1.37168,0.658242,1.6059,0.603247,0.00791477,-0.797447,0.0104907,-0.000642415,0.00067284,0.00111091,-0.000523913,0.00640739,0.022283,-0.0258739,-0.00737279,-0.00959823
1413393214505760512,-1.37143,0.657679,1.60898,0.603193,0.00794975,-0.797488,0.0103578,-0.00116621,5.01421e-05,0.00273704,-0.000531073,0.00648119,0.022483,-0.0266032,-0.00696667,-0.0102049
1413393214555760384,-1.37107,0.657188,1.60822,0.603206,0.00793433,-0.797477,0.0104863,-0.000778624,-0.00129399,0.00107079,-0.000529591,0.00655444,0.0227126,-0.0267657,-0.00743065,-0.00974873
1413393214605760512,-1.37086,0.657195,1.5987,0.603214,0.00789071,-0.797475,0.0102815,-0.00253229,0.000624744,0.000334276,-0.000527135,0.00663442,0.0229832,-0.0275596,-0.00785853,-0.00940953
1413393214655760384,-1.37085,0.656968,1.59739,0.603243,0.00773413,-0.797454,0.0102449,9.38703e-06,-0.00191082,0.00124148,-0.000547328,0.00669352,0.0231397,-0.0272309,-0.00771706,-0.0102433
1413393214705760512,-1.37019,0.656259,1.59505,0.603318,0.00758493,-0.7974,0.0101749,-0.00148221,-0.000411297,-0.00158801,-0.000564828,0.00676929,0.0233866,-0.028726,-0.0088358,-0.00915728
1413393214755760384,-1.36942,0.655123,1.59788,0.603314,0.00742412,-0.797407,0.00994326,8.78353e-05,-0.00136747,-0.000750725,-0.00056946,0.00681333,0.0235605,-0.0282745,-0.00838214,-0.010171
1413393214805760512,-1.36961,0.655304,1.59677,0.60332,0.00760356,-0.797398,0.0101416,0.000775236,-0.000152511,-0.000802241,-0.000589668,0.00685435,0.0237446,-0.0277969,-0.00792758,-0.0109674
1413393214855760384,-1.36762,0.652917,1.59835,0.603353,0.00682431,-0.797389,0.00945682,0.000759427,0.000786206,-0.00125323,-0.000612382,0.00693368,0.0239674,-0.0291188,-0.0081017,-0.0117392
1413393214905760512,-1.36726,0.652182,1.60759,0.603343,0.00650332,-0.797403,0.00916865,0.00120636,-0.00041215,-0.00123053,-0.000569875,0.00697881,0.0241627,-0.0283811,-0.00570261,-0.0128782
1413393214955760384,-1.36472,0.649568,1.60843,0.603383,0.00549579,-0.797388,0.00847448,0.000759584,0.000531357,-4.93631e-05,-0.000586854,0.00702708,0.0243938,-0.0296749,-0.00637846,-0.013074
1413393215005760512,-1.36087,0.645412,1.61587,0.603451,0.00374185,-0.79736,0.00710967,0.000503341,0.00123676,0.000738486,-0.000581197,0.00711463,0.0246252,-0.0318465,-0.00680269,-0.013523
1413393215055760384,-1.36013,0.642987,1.63136,0.603313,0.00304312,-0.797474,0.00630899,-0.00114266,-0.00242604,0.00199667,-0.00056055,0.00714191,0.0248175,-0.0335724,-0.00615845,-0.014296
1413393215105760512,-1.38922,0.677023,1.55358,0.602464,0.0180804,-0.797735,0.0181675,-0.00053139,-0.00751042,-0.00330947,-0.000579835,0.0072051,0.0249927,-0.029974,-0.00332677,-0.00389868
1413393215155760384,-1.38969,0.677331,1.52731,0.602483,0.0194127,-0.797665,0.0191962,-0.000840802,-0.00216933,-0.00208498,-0.000569627,0.00726356,0.0251902,-0.0297164,-0.00253511,-0.000248789
1413393215205760512,-1.39233,0.679897,1.54059,0.602303,0.020543,-0.797757,0.0198638,-0.00189335,-0.00315909,-0.00406777,-0.000590623,0.00732777,0.0254263,-0.0299055,-0.00342248,0.00183245
1413393215255760384,-1.37266,0.655523,1.60398,0.602915,0.0101547,-0.79765,0.0120509,-0.00190236,-0.00302927,-0.00454259,-0.000591666,0.00738927,0.0256071,-0.0318429,-0.00650068,-0.00468066
1413393215305760512,-1.37637,0.659552,1.59436,0.602806,0.0123332,-0.797676,0.0136235,-0.00331854,-0.00219737,-0.00422176,-0.000607243,0.00746515,0.0258486,-0.0332743,-0.00715323,-0.000675067
1413393215355760384,-1.37937,0.662211,1.61474,0.602721,0.0136192,-0.797702,0.0146079,-0.0016188,-0.00366018,-0.00421192,-0.000648046,0.00751859,0.0260053,-0.0343673,-0.00681972,0.000842844
1413393215405760512,-1.38123,0.663267,1.6108,0.602525,0.014075,-0.797836,0.0149444,-0.00271286,-0.00151161,-0.00259983,-0.00066027,0.00761089,0.0261728,-0.0348422,-0.0082314,0.00142479
1413393215455760384,-1.40157,0.687219,1.53994,0.601757,0.0251025,-0.797943,0.023376,-0.00448832,-0.000853188,0.000506937,-0.00067689,0.00758933,0.0263593,-0.032276,-0.00302525,0.0107342
1413393215505760512,-1.40281,0.68551,1.57763,0.601731,0.0236234,-0.79804,0.0222391,-0.00297682,-0.00197382,-0.000807323,-0.000663431,0.00765965,0.0265868,-0.0337148,-0.00366381,0.0114156
1413393215555760384,-1.40303,0.685306,1.58413,0.601604,0.0236087,-0.798142,0.0220473,-0.00636585,-0.00327758,0.00156993,-0.000690409,0.00774567,0.026718,-0.0333405,-0.00330342,0.0121552
1413393215605760512,-1.40312,0.685372,1.56596,0.601538,0.0236102,-0.798193,0.0219743,-0.00775348,-0.00502629,0.00444369,-0.000692147,0.00778383,0.0269426,-0.0340461,-0.00286367,0.0134836
1413393215655760384,-1.405,0.686579,1.56214,0.60127,0.0239551,-0.798367,0.0226182,-0.00709223,-0.00199402,0.00449406,-0.000723358,0.00784358,0.027093,-0.0346969,-0.00540312,0.0180039
1413393215705760512,-1.40603,0.68613,1.58323,0.600598,0.0240151,-0.798869,0.0226665,-0.00330742,-0.004721,-0.00232632,-0.000725549,0.00793355,0.0273126,-0.0356642,-0.00374795,0.0189248
1413393215755760384,-1.40675,0.687264,1.56502,0.599983,0.0242905,-0.799324,0.0226155,-0.000978406,-0.00166783,-0.00395019,-0.000742428,0.00796982,0.0274654,-0.034781,-0.00573792,0.0230537
1413393215805760512,-1.40765,0.687698,1.56963,0.599361,0.0245645,-0.799785,0.0225259,0.00298422,-0.00335499,0.0109513,-0.00074088,0.00799024,0.0276302,-0.0335967,-0.0056949,0.0263902
1413393215855760384,-1.41033,0.687434,1.64638,0.598838,0.0249804,-0.800157,0.0227419,-0.000164811,-0.00014737,0.00875208,-0.000816088,0.0080771,0.0278131,-0.0330114,-0.00907879,0.032759
1413393215905760512,-1.41326,0.686904,1.73444,0.598459,0.025351,-0.800419,0.0230947,-0.000135907,-0.000588233,0.00898249,-0.000793397,0.00809823,0.0280185,-0.0294313,-0.00658386,0.0386371
1413393215955760384,-1.4166,0.687034,1.81574,0.598082,0.0256209,-0.800669,0.0239086,0.00374689,0.00294959,0.00708439,-0.000765738,0.00814011,0.0282088,-0.0270888,-0.00471534,0.0439647
1413393216005760512,-1.41595,0.690121,1.72123,0.597772,0.0260261,-0.800896,0.0236042,0.00850655,0.00342309,0.00815908,-0.000770707,0.00820038,0.0283558,-0.024816,-0.00180197,0.0508657
1413393216055760384,-1.41685,0.693236,1.65246,0.597568,0.0269394,-0.801021,0.0234868,0.000239046,0.00396055,0.00415936,-0.000773709,0.00828225,0.0285497,-0.0245449,-0.00384868,0.0560408
1413393216105760512,-1.4169,0.6947,1.61231,0.597199,0.0267766,-0.801295,0.0237185,-0.00083908,0.00349958,-0.00629606,-0.000774256,0.00831989,0.0287486,-0.0224877,-0.00323537,0.064359
1413393216155760384,-1.41475,0.69849,1.44912,0.596996,0.0266589,-0.801463,0.0233153,-0.00324028,0.00117923,-0.00274751,-0.000793956,0.00835113,0.0289354,-0.0190777,-0.00129431,0.0794468
1413393216205760512,-1.4172,0.700117,1.45176,0.596272,0.0269442,-0.801983,0.0235994,-0.00529387,0.00347307,-0.00511436,-0.00077535,0.00843095,0.0291052,-0.0186893,-0.00142208,0.0891626
1413393216255760384,-1.41116,0.692611,1.49578,0.594793,0.0224912,-0.803297,0.0207201,-0.0124038,0.0019706,0.000709405,-0.000785761,0.00841882,0.0292121,-0.0144945,0.00674947,0.102445
1413393216305760512,-1.40876,0.687917,1.54755,0.593246,0.0194834,-0.804565,0.0188718,-0.00797788,-0.00563173,-0.000518607,-0.000789675,0.00851262,0.0294384,-0.0126049,0.0121115,0.11356
1413393216355760384,-1.40161,0.679487,1.5809,0.592459,0.0141631,-0.805322,0.0157536,-5.83216e-05,0.000452389,-0.00296412,-0.000786506,0.00854771,0.029555,-0.0105076,0.016356,0.124826
1413393216405760512,-1.39149,0.670483,1.6246,0.59116,0.00916602,-0.806407,0.0124007,0.000503592,-0.0119065,-0.00660532,-0.00078521,0.00860798,0.0297601,-0.00551754,0.0218189,0.145135
1413393216455760384,-1.38649,0.661804,1.68425,0.590937,0.00583338,-0.80664,0.00952303,-0.00457974,-0.00617534,0.0116782,-0.000801376,0.00873609,0.0299266,-0.00493547,0.0237883,0.153934
1413393216505760512,-1.36574,0.650764,1.59797,0.59018,0.00460504,-0.807218,0.00818849,0.00223531,0.00638811,0.0127175,-0.000808685,0.00877937,0.0301049,-0.0117848,0.0179094,0.135921
1413393216555760384,-1.36007,0.642418,1.64202,0.589466,-0.000168831,-0.807782,0.00414966,0.000201558,0.00976973,-0.0192667,-0.000820977,0.00883357,0.0302415,-0.0104117,0.0181248,0.136821
1413393216605760512,-1.35722,0.640266,1.63307,0.58862,-0.00258946,-0.808397,0.0036566,-0.000329236,0.0195584,-0.0122163,-0.000798733,0.00890213,0.0304119,-0.00835512,0.0192561,0.145448
1413393216655760384,-1.36172,0.645249,1.66128,0.589635,0.000340405,-0.807656,0.0047271,0.00021747,0.00792274,0.0230365,-0.000821064,0.00895286,0.0305249,-0.0101258,0.0172794,0.138334
1413393216705760512,-1.34778,0.632066,1.67385,0.591073,-0.00401282,-0.806608,-0.00113389,0.0180288,0.0207978,0.0357748,-0.000798239,0.00902842,0.0306697,-0.0142571,0.0199087,0.119516
1413393216755760384,-1.34373,0.629465,1.6899,0.591572,-0.00448995,-0.806225,-0.00504117,0.0117239,0.0188521,0.0480436,-0.000752863,0.00907476,0.03079,-0.014839,0.0229924,0.110122
1413393216805760512,-1.33981,0.628805,1.66066,0.592443,-0.00502031,-0.805556,-0.00812208,0.0183114,0.00890361,0.0876099,-0.000734186,0.00913412,0.0309612,-0.0164821,0.0219986,0.105086
1413393216855760384,-1.33403,0.626011,1.63232,0.59363,-0.00568618,-0.804641,-0.0111663,0.0279796,0.0109045,0.0935632,-0.000767359,0.00917206,0.0311725,-0.0192629,0.0216033,0.0973255
1413393216905760512,-1.32934,0.623188,1.63957,0.595712,-0.00644966,-0.803054,-0.0137797,0.0397277,-0.00198946,0.129484,-0.000732696,0.00922851,0.0313492,-0.0214297,0.0229094,0.0910674
1413393216955760384,-1.3247,0.616048,1.76226,0.595921,-0.00614132,-0.802825,-0.0177066,0.0484996,-0.0034269,0.144438,-0.000681297,0.00930159,0.0315572,-0.0245007,0.0217843,0.086325
1413393217005760512,-1.31917,0.611766,1.81198,0.595432,-0.00691759,-0.803117,-0.0204025,0.063353,-0.0138081,0.16183,-0.000738073,0.00933561,0.0317094,-0.0245832,0.0202344,0.0838763
1413393217055760384,-1.31398,0.610998,1.75899,0.593421,-0.00762911,-0.804556,-0.0219873,0.0715387,-0.0381333,0.226893,-0.000656661,0.00934702,0.031839,-0.0231911,0.0226504,0.0839896
1413393217105760512,-1.30574,0.604757,1.79479,0.592331,-0.00912974,-0.805309,-0.0231995,0.083136,-0.0449779,0.27422,-0.000662133,0.00939154,0.0319987,-0.0232875,0.0225207,0.0843728
1413393217155760384,-1.30086,0.603269,1.74942,0.590971,-0.0108364,-0.806275,-0.0236009,0.0893357,-0.0683989,0.276594,-0.000693912,0.00943628,0.0321454,-0.0237282,0.0233272,0.0840779
1413393217205760512,-1.29219,0.598297,1.76225,0.59018,-0.0115739,-0.806837,-0.0238185,0.0991775,-0.0837248,0.262727,-0.00066167,0.00948295,0.0323105,-0.0240937,0.023657,0.086561
1413393217255760384,-1.28972,0.595387,1.77328,0.590267,-0.0115271,-0.806734,-0.0251726,0.101751,-0.0932999,0.24342,-0.000678933,0.0095399,0.0324587,-0.0235422,0.0273904,0.0888237
1413393217305760512,-1.28525,0.58774,1.84978,0.589838,-0.0111791,-0.807023,-0.0260876,0.110041,-0.110054,0.204264,-0.000705438,0.009595,0.032643,-0.0255407,0.0288566,0.0884724
1413393217355760384,-1.28823,0.585356,1.8769,0.589341,-0.0109272,-0.807392,-0.0260129,0.119799,-0.128665,0.169317,-0.000695477,0.00967581,0.032736,-0.0277604,0.0274011,0.0800759
1413393217405760512,-1.28051,0.581354,1.8163,0.588791,-0.0103821,-0.807784,-0.0265122,0.137145,-0.135486,0.155967,-0.000686795,0.00970617,0.0328618,-0.0300876,0.0246911,0.0696143
1413393217455760384,-1.27004,0.576031,1.75008,0.587997,-0.0106185,-0.808364,-0.0263698,0.14728,-0.16031,0.1394,-0.000719957,0.00971815,0.0329886,-0.0291737,0.0229505,0.069097
1413393217505760512,-1.25916,0.565519,1.78271,0.588207,-0.00886854,-0.80825,-0.0257957,0.148088,-0.181451,0.126945,-0.000677198,0.00970258,0.0331128,-0.0330179,0.0260025,0.0559683
1413393217555760384,-1.25486,0.556882,1.86711,0.588853,-0.00711727,-0.807822,-0.0250057,0.16946,-0.181237,0.104201,-0.000719506,0.0097099,0.0332005,-0.0359197,0.0220914,0.0428584
1413393217605760512,-1.24826,0.551685,1.85356,0.589394,-0.00480585,-0.807472,-0.0241284,0.172241,-0.213857,0.0866534,-0.000747636,0.00972395,0.0333739,-0.0393965,0.0208874,0.0342818
1413393217655760384,-1.2388,0.539118,1.86079,0.589228,-0.00524342,-0.807581,-0.0244301,0.182189,-0.219346,0.0950708,-0.00068104,0.00975324,0.0335147,-0.0398498,0.0220414,0.0327941
1413393217705760512,-1.2295,0.527257,1.87144,0.58941,-0.00557629,-0.807436,-0.0247447,0.186549,-0.237841,0.139238,-0.000724173,0.00979251,0.0336117,-0.0408853,0.0213312,0.0347981
1413393217755760384,-1.21979,0.514571,1.87864,0.589712,-0.00528422,-0.807226,-0.0244853,0.194027,-0.266736,0.185116,-0.000734012,0.00981459,0.0337879,-0.0416454,0.0205819,0.0358782
1413393217805760512,-1.20987,0.501498,1.88718,0.589612,-0.00542368,-0.807311,-0.0240242,0.202145,-0.27124,0.218104,-0.000738734,0.00987599,0.03392,-0.0429916,0.0208587,0.035837
1413393217855760384,-1.19947,0.487404,1.89877,0.589608,-0.00610625,-0.807324,-0.0235221,0.211596,-0.283968,0.242516,-0.000739528,0.00991354,0.0340761,-0.0436285,0.0212628,0.0363461
1413393217905760512,-1.18891,0.472497,1.91094,0.589713,-0.00608892,-0.807265,-0.0229182,0.211219,-0.31097,0.279662,-0.000739687,0.00995798,0.0342094,-0.044583,0.0217053,0.0359626
1413393217955760384,-1.17799,0.4567,1.92547,0.590427,-0.00629897,-0.806744,-0.0228358,0.220296,-0.313076,0.297912,-0.000729736,0.0100272,0.034325,-0.0452787,0.022291,0.0326921
1413393218005760512,-1.16678,0.440354,1.93957,0.590149,-0.00739852,-0.806969,-0.0216815,0.226545,-0.334254,0.273341,-0.000721436,0.0100719,0.0344735,-0.0452455,0.0222376,0.0311726
1413393218055760384,-1.15517,0.423182,1.95093,0.590667,-0.009457,-0.806643,-0.0187114,0.230737,-0.347328,0.220375,-0.000741571,0.0101405,0.034623,-0.0447224,0.0215444,0.0287091
1413393218105760512,-1.1434,0.405577,1.96231,0.590259,-0.0122072,-0.806973,-0.0155135,0.235466,-0.339686,0.191826,-0.000741118,0.0101713,0.034745,-0.0438644,0.0208854,0.0270408
1413393218155760384,-1.13139,0.387826,1.97066,0.590231,-0.0161558,-0.807007,-0.0103073,0.237547,-0.358885,0.140604,-0.00074473,0.0101949,0.0348766,-0.0419154,0.0218271,0.0263506
1413393218205760512,-1.11899,0.369789,1.9768,0.590574,-0.0199523,-0.806727,-0.00407509,0.247852,-0.353778,0.0892663,-0.000712626,0.0102152,0.0349914,-0.0405724,0.0242144,0.0260507
1413393218255760384,-1.106,0.352586,1.98022,0.589798,-0.0245603,-0.807176,0.00172716,0.265091,-0.320633,0.0407429,-0.000683263,0.0102151,0.035138,-0.0392593,0.0245266,0.025757
1413393218305760512,-1.09277,0.336202,1.98077,0.588442,-0.0281399,-0.808026,0.00622142,0.258298,-0.322097,0.0049499,-0.000710273,0.0102652,0.0352649,-0.0402274,0.0232458,0.0275103
1413393218355760384,-1.07942,0.320796,1.97997,0.5882,-0.0279308,-0.808206,0.00656972,0.268303,-0.293456,-0.0351964,-0.000724339,0.0102868,0.0353773,-0.0412161,0.0232533,0.0273178
1413393218405760512,-1.06578,0.306926,1.97758,0.588906,-0.025747,-0.80779,0.00183298,0.276001,-0.255714,-0.0611234,-0.000733324,0.0103051,0.0355051,-0.0425207,0.0230319,0.0276226
1413393218455760384,-1.05178,0.293654,1.97391,0.589107,-0.0224846,-0.807735,-0.00344634,0.279069,-0.261609,-0.0908477,-0.000733267,0.0103721,0.0356481,-0.0452574,0.0234691,0.0265548
1413393218505760512,-1.03744,0.281106,1.96941,0.589858,-0.0191117,-0.807236,-0.00857852,0.28788,-0.244254,-0.084529,-0.000750984,0.0104003,0.0357386,-0.0461119,0.0228342,0.0246417
1413393218555760384,-1.02281,0.269101,1.96449,0.590292,-0.0162612,-0.806902,-0.0141379,0.297745,-0.22625,-0.0819923,-0.000783295,0.0104538,0.0358983,-0.0474192,0.0218807,0.0253234
1413393218605760512,-1.00788,0.256952,1.96064,0.591358,-0.013652,-0.806103,-0.0175455,0.299777,-0.255039,-0.073551,-0.000781639,0.0105001,0.0359866,-0.0487194,0.0227815,0.0228728
1413393218655760384,-0.992573,0.244478,1.95681,0.592045,-0.0118589,-0.805574,-0.0198394,0.311991,-0.246823,-0.0727729,-0.000773442,0.0105281,0.0360846,-0.0483845,0.0244149,0.0193186
1413393218705760512,-0.976795,0.231804,1.95357,0.592135,-0.0124547,-0.805489,-0.0202009,0.320908,-0.244207,-0.0595525,-0.000800536,0.0105652,0.0362304,-0.0494276,0.0246553,0.0175326
1413393218755760384,-0.960657,0.21884,1.95143,0.59062,-0.0113667,-0.806597,-0.0209965,0.324437,-0.273548,-0.0561657,-0.000809947,0.0106387,0.036339,-0.0503586,0.026073,0.0176695
1413393218805760512,-0.944095,0.205542,1.94888,0.586419,-0.0122343,-0.809681,-0.0194848,0.336135,-0.26197,-0.0536313,-0.000793306,0.0106432,0.0364259,-0.0505271,0.0267658,0.0139263
1413393218855760384,-0.927427,0.192244,1.9463,0.579761,-0.0160205,-0.814478,-0.0157125,0.333168,-0.263107,-0.044838,-0.000846231,0.0106788,0.0366067,-0.0500307,0.0288395,0.0158404
1413393218905760512,-0.911144,0.178644,1.94468,0.572973,-0.0185633,-0.819279,-0.0118108,0.318695,-0.278278,-0.0412981,-0.000833499,0.0107158,0.0366896,-0.0490078,0.0299359,0.0110568
1413393218955760384,-0.89553,0.16543,1.94373,0.567205,-0.0207229,-0.823266,-0.00908473,0.302053,-0.255485,-0.013583,-0.000849968,0.0107721,0.0368529,-0.0506971,0.0307143,0.011942
1413393219005760512,-0.881228,0.152725,1.94392,0.563509,-0.0227243,-0.825764,-0.00747724,0.275204,-0.245603,0.00982854,-0.000864571,0.0108412,0.0370006,-0.0509377,0.031483,0.0112857
1413393219055760384,-0.868453,0.14011,1.94175,0.561643,-0.0235983,-0.827025,-0.00552379,0.243598,-0.246555,0.0326575,-0.000860551,0.0108328,0.0370345,-0.0478858,0.0338451,0.0121994
1413393219105760512,-0.857033,0.128071,1.9423,0.562029,-0.0234131,-0.826768,-0.00549371,0.219812,-0.226365,0.0632973,-0.00086794,0.0108536,0.0371781,-0.0482542,0.0347525,0.0103291
1413393219155760384,-0.846821,0.117083,1.94782,0.563185,-0.0237536,-0.825977,-0.00453829,0.194473,-0.215364,0.0724204,-0.000885365,0.0108541,0.0373117,-0.0480189,0.0381623,0.0124818
1413393219205760512,-0.83771,0.106116,1.95307,0.564042,-0.0233021,-0.825407,-0.00405958,0.171614,-0.213342,0.0901135,-0.000860377,0.0108761,0.0373754,-0.0485149,0.0402009,0.0102586
1413393219255760384,-0.829671,0.0957734,1.96009,0.565652,-0.0228359,-0.824321,-0.0033364,0.151511,-0.20028,0.112948,-0.000822838,0.0108998,0.0374907,-0.0497685,0.0425122,0.00844992
1413393219305760512,-0.822851,0.0862063,1.96845,0.566787,-0.0217429,-0.823572,-0.00298852,0.121664,-0.181851,0.119088,-0.000906528,0.0109783,0.0376364,-0.0535079,0.0443434,0.0099101
1413393219355760384,-0.817633,0.0770159,1.97458,0.567141,-0.0214963,-0.823337,-0.00228952,0.0850145,-0.179009,0.125333,-0.000837077,0.0109624,0.0377167,-0.054319,0.046549,0.00892517
1413393219405760512,-0.814095,0.0682843,1.98246,0.567678,-0.0216589,-0.822966,-0.000574242,0.0566615,-0.165175,0.117598,-0.000838563,0.0110072,0.0378477,-0.0563686,0.0475409,0.0100849
1413393219455760384,-0.812179,0.060541,1.98422,0.56886,-0.0214082,-0.822156,-0.00055677,0.0170033,-0.148642,0.070398,-0.000910597,0.0110583,0.0379835,-0.0589034,0.0474548,0.0105482
1413393219505760512,-0.812202,0.0532998,1.98572,0.569875,-0.0209736,-0.821464,-0.000640436,-0.0114446,-0.144263,0.0261654,-0.000875153,0.0111056,0.0380815,-0.0623638,0.0483568,0.0114112
1413393219555760384,-0.813474,0.0465486,1.98658,0.57154,-0.020657,-0.820314,-0.000296399,-0.0348694,-0.133605,-0.00704049,-0.000886054,0.0111279,0.0382055,-0.0651838,0.0500519,0.00933176
1413393219605760512,-0.815414,0.040336,1.98469,0.573195,-0.0203437,-0.819166,-0.000560841,-0.0422527,-0.123089,-0.0100017,-0.000919545,0.0111902,0.0383046,-0.0682036,0.0510732,0.00796909
1413393219655760384,-0.818035,0.0351007,1.98477,0.575378,-0.0198191,-0.817648,-0.000234827,-0.0529149,-0.117524,0.0230306,-0.000914025,0.0112242,0.0383928,-0.0702171,0.0525146,0.00749871
1413393219705760512,-0.821468,0.0311268,1.98401,0.578215,-0.0189255,-0.815665,-0.000740599,-0.0658801,-0.101863,0.083048,-0.000930177,0.0112538,0.0384827,-0.071457,0.0534663,0.00948182
1413393219755760384,-0.825811,0.0290044,1.98966,0.58123,-0.0171908,-0.813557,-0.00141529,-0.0865626,-0.0922703,0.155231,-0.000976348,0.0113052,0.0385858,-0.0734374,0.0533066,0.0068646
1413393219805760512,-0.818882,0.0765196,1.87962,0.584329,-0.00265014,-0.811451,0.00998797,-0.0586282,-0.0830291,0.211828,-0.00118492,0.0114095,0.0386877,-0.0759574,0.126692,0.00353142
1413393219855760384,-0.822666,0.0728051,1.90738,0.585389,-0.00201492,-0.810698,0.00924234,-0.0546784,-0.0720825,0.320428,-0.00119691,0.0114791,0.0387741,-0.077085,0.125974,0.00320272
1413393219905760512,-0.826416,0.0693838,1.93193,0.586742,-0.0010051,-0.809735,0.00796892,-0.0581761,-0.0724077,0.340415,-0.00122617,0.0114525,0.0388889,-0.0742049,0.131353,0.00712304
1413393219955760384,-0.829895,0.0662988,1.95165,0.588073,0.000374164,-0.808784,0.0063236,-0.0659027,-0.065158,0.339173,-0.00120002,0.011454,0.0389173,-0.0713737,0.133473,0.00820368
1413393220005760512,-0.833268,0.0629894,1.96349,0.589183,0.00087082,-0.807978,0.00580741,-0.0591268,-0.0667912,0.297541,-0.00123271,0.0114907,0.0390652,-0.0715987,0.135066,0.0147916
1413393220055760384,-0.836819,0.0597441,1.98253,0.59045,0.0011169,-0.807058,0.00503336,-0.0402543,-0.0713163,0.241824,-0.00122208,0.0115176,0.0391043,-0.0720891,0.134866,0.00884062
1413393220105760512,-0.83934,0.0567149,2.00424,0.59108,0.00115918,-0.806599,0.00478255,-0.036111,-0.0674844,0.216807,-0.00121062,0.0115202,0.039215,-0.0734525,0.133778,0.00684298
1413393220155760384,-0.840161,0.0532104,2.00084,0.591528,0.00189284,-0.806272,0.004195,-0.0275435,-0.0763059,0.196617,-0.00125258,0.0115968,0.0393455,-0.0769904,0.133043,0.0114454
1413393220205760512,-0.842054,0.0510814,2.00723,0.592075,0.00284562,-0.805869,0.00385611,-0.0244608,-0.0797776,0.218567,-0.0013052,0.0116047,0.0394106,-0.0767296,0.132306,0.0165402
1413393220255760384,-0.842979,0.0464404,2.01255,0.592685,0.00196968,-0.805423,0.0038155,-0.0191969,-0.0733185,0.217656,-0.00123457,0.0116529,0.0394936,-0.0778925,0.136973,0.0138252
1413393220305760512,-0.843955,0.0412785,2.03146,0.593247,0.00274048,-0.805013,0.00250655,-0.00690442,-0.0915698,0.223135,-0.00125177,0.0116808,0.0396288,-0.0776545,0.139128,0.0144526
1413393220355760384,-0.844257,0.0368957,2.04629,0.593765,0.00266814,-0.804629,0.0028342,-0.000836696,-0.093603,0.227276,-0.00122863,0.0117057,0.0397348,-0.0791861,0.142364,0.0134889
1413393220405760512,-0.843845,0.032145,2.05657,0.593864,0.00205514,-0.804558,0.00288524,0.00816426,-0.0897689,0.242128,-0.00118096,0.0118037,0.0398292,-0.0826667,0.145382,0.0118941
1413393220455760384,-0.84316,0.0270856,2.07048,0.593199,0.00181685,-0.805049,0.00274695,0.0241476,-0.109532,0.237424,-0.00120692,0.0118709,0.0399521,-0.0834328,0.14687,0.0103753
1413393220505760512,-0.841803,0.0220994,2.08137,0.591333,0.00128905,-0.806419,0.0034095,0.0312512,-0.112377,0.224749,-0.00124697,0.0119764,0.0401675,-0.0876026,0.145665,0.013234
1413393220555760384,-0.839814,0.0165564,2.09305,0.5897,0.000979805,-0.807615,0.00353229,0.0458176,-0.108085,0.185906,-0.00118643,0.0119832,0.0402452,-0.0867989,0.148529,0.0142089
1413393220605760512,-0.837446,0.0109217,2.10101,0.588893,0.000415954,-0.808203,0.00355587,0.0422733,-0.12281,0.129069,-0.00122065,0.0120128,0.0403582,-0.0855838,0.150228,0.0152049
1413393220655760384,-0.835244,0.00509789,2.10473,0.589522,0.000578912,-0.807743,0.00386533,0.0445861,-0.127648,0.0749397,-0.00117734,0.0120393,0.040452,-0.0841541,0.152687,0.0141017
1413393220705760512,-0.832694,-0.000886805,2.10945,0.590009,-0.000359488,-0.807386,0.0042939,0.0588261,-0.111993,0.0250501,-0.00116694,0.0121061,0.0405721,-0.0839645,0.153429,0.0136824
1413393220755760384,-0.829914,-0.00686895,2.10804,0.589629,-0.00207666,-0.807642,0.00689963,0.0527021,-0.136058,-0.0227378,-0.00118812,0.012126,0.0406456,-0.0820708,0.153498,0.015217
1413393220805760512,-0.826797,-0.0130569,2.10604,0.587399,-0.00463891,-0.809213,0.010772,0.0617898,-0.124765,-0.013927,-0.00119828,0.0121455,0.0407563,-0.0802887,0.154139,0.0169209
1413393220855760384,-0.823701,-0.0186468,2.10526,0.585721,-0.00784523,-0.810347,0.014387,0.065027,-0.0923666,0.0383496,-0.0011817,0.0121721,0.040899,-0.0798173,0.154072,0.0195303
1413393220905760512,-0.82048,-0.0236185,2.10877,0.58461,-0.00922243,-0.811089,0.0167851,0.0708456,-0.111217,0.0924447,-0.00120113,0.0122161,0.0409672,-0.0782591,0.154729,0.0185159
1413393220955760384,-0.817704,-0.0280714,2.11573,0.583363,-0.0101328,-0.811949,0.0180039,0.0590174,-0.0801726,0.198741,-0.00119676,0.0122175,0.0410944,-0.0773771,0.155463,0.0182233
1413393221005760512,-0.814855,-0.0312908,2.12637,0.58386,-0.0109156,-0.811611,0.0166519,0.0479775,-0.0403743,0.224282,-0.00118974,0.0122893,0.0412144,-0.0781016,0.155284,0.0183426
1413393221055760384,-0.812778,-0.0336569,2.1383,0.583276,-0.0111463,-0.812042,0.0159357,0.0403433,-0.0491454,0.25405,-0.00122662,0.0123087,0.0413155,-0.0776037,0.153838,0.0206153
1413393221105760512,-0.811227,-0.035318,2.15127,0.582194,-0.0113021,-0.812819,0.0157456,0.0274011,-0.0239602,0.26617,-0.00122278,0.0123443,0.0413971,-0.0768081,0.155407,0.0189157
1413393221155760384,-0.809862,-0.0359489,2.16432,0.581683,-0.0117025,-0.813203,0.0144664,0.0271087,0.00185319,0.282041,-0.00117146,0.0123751,0.0414794,-0.0755207,0.161861,0.0147897
1413393221205760512,-0.8092,-0.0360032,2.18057,0.580407,-0.0117009,-0.81414,0.0129493,0.0131699,-0.00777047,0.288283,-0.00117256,0.01237,0.0415718,-0.0726667,0.162915,0.0164924
1413393221255760384,-0.808419,-0.0358282,2.1937,0.578902,-0.0108021,-0.815232,0.0123811,0.012422,0.0111941,0.284217,-0.00116462,0.0124035,0.0416437,-0.0714579,0.164113,0.0151659
1413393221305760512,-0.807978,-0.0348151,2.2084,0.577217,-0.0104732,-0.816466,0.00976762,0.00941193,0.029085,0.269965,-0.00116697,0.0124344,0.0417605,-0.0703098,0.164397,0.0166503
1413393221355760384,-0.807718,-0.0335839,2.21729,0.575474,-0.0101609,-0.817705,0.00928327,-0.0064796,0.0174662,0.306451,-0.00115578,0.0124584,0.0418866,-0.0692333,0.165848,0.0169763
1413393221405760512,-0.808518,-0.0315598,2.23601,0.573934,-0.00919202,-0.818808,0.00825829,-0.0229928,0.0305758,0.309871,-0.00110845,0.0124758,0.0419087,-0.0644098,0.172677,0.0146633
1413393221455760384,-0.810036,-0.0295471,2.24765,0.573436,-0.0080366,-0.81919,0.00587588,-0.040846,0.047041,0.289984,-0.0011136,0.0124667,0.0420248,-0.0635826,0.171522,0.0163794
1413393221505760512,-0.812474,-0.0273112,2.2555,0.572617,-0.00738975,-0.819776,0.00474457,-0.0579226,0.03697,0.226965,-0.00114324,0.0125707,0.0421884,-0.0681379,0.166951,0.0190909
1413393221555760384,-0.815714,-0.0254109,2.27161,0.572001,-0.00520908,-0.820235,0.00170379,-0.0712054,0.0397957,0.177239,-0.00120571,0.0124845,0.0420667,-0.0600921,0.160917,0.020865
1413393221605760512,-0.820365,-0.0226235,2.27771,0.571904,-0.00370423,-0.820313,7.05278e-05,-0.100142,0.0339649,0.158654,-0.00122052,0.0126071,0.0422968,-0.0628121,0.162495,0.0226815
1413393221655760384,-0.825591,-0.0215653,2.28298,0.572417,-0.00263227,-0.819959,-0.000782293,-0.119583,0.0100064,0.162584,-0.00124729,0.0126481,0.0424379,-0.0648742,0.161502,0.0245432
1413393221705760512,-0.831836,-0.0207238,2.29137,0.575464,-0.00189844,-0.817824,-0.00139152,-0.129378,0.0114436,0.173817,-0.00117678,0.0127202,0.0424663,-0.065219,0.165915,0.0200188
1413393221755760384,-0.838517,-0.0201481,2.29802,0.578949,-0.00187045,-0.815361,-0.000665712,-0.137884,-4.28843e-05,0.166477,-0.0012152,0.0127326,0.0425726,-0.065743,0.167064,0.0231698
1413393221805760512,-0.845332,-0.02037,2.3032,0.58215,-0.000901776,-0.813081,-0.000155582,-0.138652,-0.0208691,0.170651,-0.00119885,0.0128101,0.0426554,-0.0662383,0.168073,0.0236298
1413393221855760384,-0.852327,-0.0210782,2.3113,0.584063,-0.00024993,-0.811709,-0.000275759,-0.135542,-0.00640368,0.161542,-0.0012202,0.0128735,0.0427647,-0.066509,0.167452,0.0208864
1413393221905760512,-0.859209,-0.0218036,2.31834,0.585174,-0.000269983,-0.810908,0.000519738,-0.134407,-0.0289145,0.149351,-0.00117022,0.0128905,0.042864,-0.0625349,0.172374,0.0171767
1413393221955760384,-0.865851,-0.0230415,2.32536,0.586658,0.000364918,-0.809832,0.00213703,-0.12927,-0.0319256,0.126081,-0.00116493,0.0129128,0.0429604,-0.0612303,0.173935,0.0169605
1413393222005760512,-0.87199,-0.0242892,2.32875,0.586729,0.000184102,-0.80978,0.00255105,-0.122683,-0.0174198,0.0737073,-0.00113042,0.0129058,0.0430514,-0.0592671,0.176383,0.0165922
1413393222055760384,-0.877948,-0.0255803,2.32957,0.587391,0.000228855,-0.809296,0.00345565,-0.11597,-0.0348625,0.014213,-0.00111786,0.0129299,0.0431184,-0.0568638,0.176713,0.0128435
1413393222105760512,-0.883658,-0.0273404,2.32744,0.588064,0.000450204,-0.8088,0.00492549,-0.119353,-0.0446706,-0.0476383,-0.00107359,0.0129199,0.0431984,-0.054825,0.178877,0.0119165
1413393222155760384,-0.889619,-0.0290818,2.323,0.58807,0.00124602,-0.808794,0.00507277,-0.114938,-0.0305605,-0.103461,-0.00106667,0.012915,0.0432799,-0.0530413,0.179126,0.0114348
1413393222205760512,-0.895063,-0.0308109,2.31542,0.587979,0.00161839,-0.808857,0.00533214,-0.105706,-0.0383435,-0.163749,-0.00106601,0.0129265,0.0433584,-0.0563948,0.179188,0.0135992
1413393222255760384,-0.900094,-0.0326301,2.30535,0.586823,0.00203611,-0.809689,0.00631228,-0.0967286,-0.0470415,-0.215797,-0.00109681,0.0129539,0.0434528,-0.05889,0.177416,0.0132102
1413393222305760512,-0.904839,-0.0343197,2.29331,0.584536,0.00304257,-0.811342,0.00584358,-0.0939179,-0.0300761,-0.246941,-0.00114901,0.0129729,0.043536,-0.0612195,0.176124,0.0137868
1413393222355760384,-0.909555,-0.0359704,2.27976,0.580331,0.00290462,-0.814353,0.00616891,-0.0966806,-0.0409901,-0.245674,-0.00115836,0.0129846,0.0435894,-0.061465,0.177026,0.0116159
1413393222405760512,-0.914407,-0.0381166,2.26836,0.576322,0.00331226,-0.817187,0.0068711,-0.103505,-0.0480777,-0.227475,-0.00114944,0.0130595,0.0437216,-0.0633526,0.177591,0.0131619
1413393222455760384,-0.919918,-0.0399943,2.25928,0.572998,0.00484731,-0.819525,0.00535274,-0.112266,-0.0391397,-0.202693,-0.00117694,0.0130422,0.043774,-0.0635535,0.178837,0.0140411
1413393222505760512,-0.925987,-0.0424191,2.24991,0.570228,0.00461373,-0.821449,0.00641867,-0.134144,-0.0554262,-0.174436,-0.00116843,0.0131124,0.0438463,-0.0684973,0.179525,0.0143012
1413393222555760384,-0.932909,-0.0451661,2.24069,0.569089,0.00372633,-0.822216,0.00928944,-0.13907,-0.0646788,-0.114992,-0.00115005,0.0131577,0.0439218,-0.0697671,0.181343,0.0127821
1413393222605760512,-0.940395,-0.0480624,2.23254,0.568075,0.00370498,-0.822909,0.00988521,-0.166703,-0.0576109,-0.0858809,-0.00112705,0.0131382,0.0439953,-0.0692865,0.181169,0.0120268
1413393222655760384,-0.94897,-0.0511319,2.22913,0.56664,0.00369696,-0.823889,0.0106286,-0.193938,-0.0645038,-0.0272837,-0.00112899,0.0131098,0.0440021,-0.0672581,0.182245,0.0104234
1413393222705760512,-0.958993,-0.0543744,2.22778,0.566947,0.0046619,-0.823681,0.00997932,-0.214796,-0.0667407,0.0202423,-0.00115058,0.0131508,0.0441157,-0.0707037,0.181505,0.00658337
1413393222755760384,-0.969811,-0.0577363,2.22898,0.565507,0.00433679,-0.824656,0.0112176,-0.237481,-0.0595926,0.0532746,-0.00110285,0.0133639,0.0445133,-0.0840705,0.192486,-0.00329351
1413393222805760512,-0.981887,-0.0608231,2.23361,0.563821,0.00440255,-0.825802,0.0117967,-0.261112,-0.0573343,0.103706,-0.00102017,0.0132016,0.0443869,-0.0743215,0.19398,-0.00380922
1413393222855760384,-0.99498,-0.063642,2.2405,0.561781,0.00431879,-0.827178,0.0126792,-0.27626,-0.051029,0.133764,-0.00100859,0.0130463,0.0443072,-0.064733,0.192071,0.000263142
1413393222905760512,-1.00933,-0.0660969,2.24911,0.560748,0.00449441,-0.827851,0.0143296,-0.300535,-0.0439661,0.175711,-0.000985315,0.0130471,0.0444198,-0.0665294,0.194413,-0.00266305
1413393222955760384,-1.02513,-0.0682434,2.25981,0.559113,0.0054117,-0.828935,0.0151712,-0.332482,-0.0405106,0.22341,-0.000839317,0.0132677,0.0448079,-0.0821108,0.210688,-0.0142336
1413393223005760512,-1.04209,-0.0703897,2.27187,0.560262,0.00630034,-0.82815,0.0153495,-0.348703,-0.0387784,0.235487,-0.000746111,0.0133477,0.0448801,-0.0830921,0.217008,-0.0169505
1413393223055760384,-1.06013,-0.0726998,2.28428,0.56223,0.00804792,-0.826791,0.015789,-0.375765,-0.0433292,0.255725,-0.000739911,0.0133896,0.0449326,-0.0822612,0.213665,-0.0129439
1413393223105760512,-1.0793,-0.0749088,2.29713,0.564089,0.00900776,-0.825499,0.0165753,-0.398858,-0.0383823,0.254997,-0.000761861,0.0134127,0.0449915,-0.0798204,0.209274,-0.0110103
1413393223155760384,-1.09971,-0.0770292,2.309,0.565634,0.00962288,-0.824451,0.015688,-0.423619,-0.0438329,0.255193,-0.0007443,0.0135,0.0450799,-0.0816878,0.205889,-0.00899658
1413393223205760512,-1.12121,-0.0795397,2.32513,0.567573,0.0124217,-0.823104,0.0143693,-0.441563,-0.0561051,0.256669,-0.000760466,0.013567,0.0452022,-0.0815566,0.200897,-0.00764988
1413393223255760384,-1.14367,-0.0824013,2.33782,0.568712,0.0133296,-0.822319,0.0134162,-0.461185,-0.0556386,0.212344,-0.000788022,0.0136542,0.0453038,-0.0852539,0.19785,-0.00874348
1413393223305760512,-1.16706,-0.0858175,2.34633,0.570417,0.0137608,-0.821131,0.0134249,-0.480497,-0.0765962,0.171825,-0.000765965,0.0137063,0.0455058,-0.0869863,0.197285,-0.0107883
1413393223355760384,-1.19123,-0.0897148,2.3485,0.571497,0.0140962,-0.820382,0.0129245,-0.498777,-0.0850075,0.0855554,-0.000772553,0.013707,0.0455485,-0.0882268,0.194859,-0.0153817
1413393223405760512,-1.21628,-0.0938977,2.34839,0.573226,0.0142997,-0.819172,0.012857,-0.507078,-0.0914605,-0.0158003,-0.000817619,0.013753,0.0456378,-0.0906097,0.195138,-0.0195625
1413393223455760384,-1.24197,-0.0982241,2.3437,0.575375,0.0148409,-0.81767,0.0118036,-0.518938,-0.0964947,-0.130671,-0.000782218,0.0137796,0.0457288,-0.088473,0.19667,-0.026727
1413393223505760512,-1.2681,-0.103125,2.33556,0.578106,0.0147877,-0.81575,0.011228,-0.524391,-0.100516,-0.227228,-0.000787287,0.0137806,0.0458239,-0.0886377,0.198014,-0.0285761
1413393223555760384,-1.29419,-0.108185,2.32046,0.580897,0.0140461,-0.813779,0.0112327,-0.529765,-0.108135,-0.302802,-0.000771918,0.0138901,0.0459281,-0.0931886,0.201269,-0.0315348
1413393223605760512,-1.3205,-0.113539,2.30381,0.583534,0.0138689,-0.811908,0.0100962,-0.515848,-0.105776,-0.371002,-0.000723323,0.013966,0.0460875,-0.0901362,0.201946,-0.0331446
1413393223655760384,-1.34596,-0.119104,2.28344,0.585797,0.0129053,-0.810307,0.0088787,-0.511165,-0.110827,-0.401119,-0.000693293,0.0139525,0.0461068,-0.0833983,0.199022,-0.0354701
1413393223705760512,-1.37106,-0.125119,2.25805,0.586818,0.0117553,-0.809597,0.00772898,-0.501727,-0.117023,-0.374925,-0.000705575,0.0139792,0.0461769,-0.0803912,0.195704,-0.0320412
1413393223755760384,-1.39582,-0.131795,2.23861,0.587751,0.010702,-0.808946,0.00639687,-0.499805,-0.126917,-0.300556,-0.000761654,0.0139544,0.0462311,-0.0784911,0.187422,-0.0257743
1413393223805760512,-1.42017,-0.138952,2.22839,0.588875,0.0087338,-0.808157,0.0057063,-0.488345,-0.145696,-0.242893,-0.000792546,0.0139652,0.046315,-0.0779286,0.182498,-0.0210229
1413393223855760384,-1.44424,-0.146504,2.22169,0.587724,0.0070751,-0.809017,0.00475198,-0.465803,-0.154574,-0.147584,-0.000822464,0.0140054,0.0463852,-0.0757815,0.179846,-0.0219705
1413393223905760512,-1.46778,-0.15463,2.21684,0.588052,0.00650002,-0.808795,0.0018147,-0.48639,-0.158816,-0.0821261,-0.000820607,0.0140337,0.0464614,-0.0733582,0.174454,-0.0188642
1413393223955760384,-1.49176,-0.163067,2.21504,0.58773,0.0048379,-0.809043,0.000544688,-0.486304,-0.178842,-0.0242982,-0.000829332,0.014046,0.0465518,-0.0711251,0.17442,-0.0211641
1413393224005760512,-1.51573,-0.172515,2.20445,0.588587,0.00335883,-0.808427,-0.00038782,-0.488315,-0.191572,0.00856936,-0.000823169,0.0140039,0.046603,-0.0641058,0.173038,-0.0161035
1413393224055760384,-1.54013,-0.182564,2.20203,0.587974,0.00111168,-0.808879,-0.000503676,-0.493325,-0.205178,0.00106871,-0.000808418,0.0140396,0.0467185,-0.0650069,0.171602,-0.0130967
1413393224105760512,-1.56444,-0.193871,2.19391,0.589076,-0.0012154,-0.808077,-0.000707593,-0.489918,-0.23151,-0.0429968,-0.000869592,0.0140391,0.0468435,-0.0619546,0.165608,-0.00783472
1413393224155760384,-1.5882,-0.205253,2.18313,0.589711,-0.00259617,-0.80761,-0.00136789,-0.486997,-0.24469,-0.0688223,-0.000851608,0.0140339,0.0469471,-0.0608385,0.165238,-0.0142608
1413393224205760512,-1.61178,-0.218062,2.16617,0.589562,-0.000971852,-0.807715,-0.00354379,-0.475406,-0.259481,-0.133621,-0.000887247,0.0139876,0.0471098,-0.0541636,0.155198,-0.0157404
1413393224255760384,-1.63556,-0.230931,2.16013,0.590725,-0.00213049,-0.806855,-0.00490391,-0.471216,-0.270173,-0.162833,-0.000930243,0.0139228,0.0470731,-0.0533489,0.154778,-0.0176338
1413393224305760512,-1.65877,-0.244775,2.15205,0.592227,-0.0036587,-0.805747,-0.00514404,-0.459041,-0.281892,-0.223629,-0.000985463,0.0138885,0.0471549,-0.0505424,0.150855,-0.0181155
1413393224355760384,-1.68192,-0.259119,2.13652,0.592322,-0.00247179,-0.80567,-0.00678936,-0.460153,-0.285946,-0.271003,-0.00103134,0.0138547,0.0473153,-0.0477126,0.148143,-0.0180955
1413393224405760512,-1.70465,-0.273547,2.12109,0.591926,-0.00387192,-0.805937,-0.00858524,-0.448455,-0.281855,-0.313565,-0.00103123,0.0138546,0.0473153,-0.0449951,0.145387,-0.0175832
1413393224455760384,-1.72658,-0.287901,2.10224,0.592826,-0.00759221,-0.805241,-0.00933406,-0.427838,-0.28824,-0.361821,-0.0014297,0.013787,0.047299,-0.0423849,0.14334,-0.0175916
1413393224505760512,-1.74728,-0.301999,2.08264,0.593075,-0.012585,-0.804981,-0.0104869,-0.401962,-0.27614,-0.41177,-0.0014297,0.013787,0.0472991,-0.0398406,0.140931,-0.0177854
1413393224555760384,-1.76687,-0.315658,2.0604,0.592878,-0.0199923,-0.804975,-0.0105131,-0.387496,-0.272078,-0.444741,-0.00155794,0.0137175,0.0473132,-0.0375002,0.139012,-0.0181458
1413393224605760512,-1.78562,-0.32904,2.03542,0.593788,-0.0275695,-0.804062,-0.0118869,-0.374322,-0.262425,-0.461575,-0.00160199,0.0136996,0.0473221,-0.0354173,0.137831,-0.0194042
1413393224655760384,-1.80435,-0.341329,2.01202,0.593677,-0.0361487,-0.803777,-0.0135315,-0.366942,-0.243681,-0.418685,-0.00162305,0.0138564,0.0474227,-0.0393855,0.140693,-0.0204205
1413393224705760512,-1.82187,-0.353021,1.99134,0.5917,-0.0445899,-0.804773,-0.0155989,-0.349053,-0.247015,-0.414114,-0.00147599,0.0142252,0.0477812,-0.0482443,0.149045,-0.020066
1413393224755760384,-1.83939,-0.36449,1.97303,0.589768,-0.0532265,-0.805624,-0.0176244,-0.353664,-0.22787,-0.398843,-0.00143972,0.0143952,0.0479065,-0.0508397,0.151216,-0.0194013
1413393224805760512,-1.85628,-0.375263,1.95382,0.587911,-0.0612932,-0.806306,-0.0218209,-0.323342,-0.202632,-0.381986,-0.0014646,0.0145457,0.0478334,-0.049241,0.15192,-0.0208941
1413393224855760384,-1.87235,-0.385352,1.93756,0.585862,-0.0695809,-0.807028,-0.0251149,-0.317883,-0.208018,-0.333693,-0.00144898,0.0145608,0.0479484,-0.0465755,0.151379,-0.0198209
1413393224905760512,-1.88861,-0.395109,1.92326,0.584856,-0.0752953,-0.80712,-0.0288261,-0.32207,-0.189761,-0.276751,-0.00151825,0.0144739,0.0479035,-0.0433077,0.148514,-0.0174553
1413393224955760384,-1.90374,-0.404297,1.91143,0.583131,-0.0811941,-0.807684,-0.0318299,-0.291465,-0.162393,-0.215193,-0.00163115,0.0142882,0.0477623,-0.0398249,0.145157,-0.0156242
1413393225005760512,-1.91836,-0.412765,1.90322,0.581529,-0.0845151,-0.808328,-0.0358875,-0.290095,-0.169341,-0.143585,-0.00170672,0.0141583,0.0478147,-0.0378968,0.142224,-0.013584
1413393225055760384,-1.93308,-0.42055,1.90075,0.579874,-0.0860095,-0.809174,-0.0398237,-0.284899,-0.149317,-0.128232,-0.00172066,0.0141616,0.0480849,-0.03958,0.140018,-0.00978818
1413393225105760512,-1.94785,-0.426828,1.9024,0.578859,-0.0883444,-0.809492,-0.0428973,-0.271909,-0.118226,-0.056874,-0.00172087,0.014417,0.0483464,-0.0379626,0.14255,-0.0059876
1413393225155760384,-1.96118,-0.433194,1.89723,0.578658,-0.0894984,-0.809366,-0.0455234,-0.260169,-0.129741,-0.0726136,-0.0016869,0.0143106,0.0485952,-0.0404993,0.137831,-0.00287483
1413393225205760512,-1.97368,-0.439184,1.89216,0.578073,-0.0912168,-0.809592,-0.045522,-0.250003,-0.112208,-0.0607809,-0.00168431,0.0143361,0.0487768,-0.0431733,0.136131,-0.000738669
1413393225255760384,-1.98556,-0.444595,1.88695,0.577308,-0.0917976,-0.809963,-0.0474338,-0.232341,-0.0988623,-0.0533412,-0.00165361,0.0142957,0.0488985,-0.0462312,0.133606,0.000412912
1413393225305760512,-1.99724,-0.449427,1.88591,0.576419,-0.0937211,-0.810322,-0.048329,-0.231064,-0.102957,-0.0804878,-0.00167141,0.0143887,0.0489211,-0.0508154,0.134081,0.0011467
1413393225355760384,-2.00867,-0.453678,1.8838,0.576429,-0.0963827,-0.809854,-0.0507687,-0.21712,-0.0777109,-0.0601101,-0.001696,0.0144545,0.0489593,-0.0532685,0.134153,0.00114932
1413393225405760512,-2.01973,-0.457412,1.87954,0.575724,-0.102465,-0.809548,-0.0517254,-0.223502,-0.0620663,-0.0398082,-0.00171625,0.0145576,0.0490393,-0.0581638,0.133994,0.00154833
1413393225455760384,-2.03148,-0.460193,1.87886,0.574734,-0.109387,-0.809224,-0.0535896,-0.236071,-0.0491175,-0.0271825,-0.00169493,0.0145738,0.0491117,-0.0587688,0.132648,0.000928545
1413393225505760512,-2.04288,-0.461623,1.87763,0.574726,-0.118502,-0.807791,-0.0558647,-0.223743,-0.00883476,-0.0175319,-0.00168249,0.0146122,0.0491922,-0.0602358,0.132356,0.00051968
1413393225555760384,-2.0541,-0.461419,1.876,0.573007,-0.128343,-0.807251,-0.0594792,-0.219279,0.01734,-0.0100547,-0.00165542,0.0146847,0.0493105,-0.0625607,0.133012,0.00059135
1413393225605760512,-2.06564,-0.459512,1.8748,0.5721,-0.13948,-0.805683,-0.0641997,-0.241011,0.0530296,0.0196152,-0.00163625,0.0146806,0.0493382,-0.0629404,0.132847,-0.000857324
1413393225655760384,-2.07721,-0.455784,1.87527,0.571621,-0.150098,-0.803546,-0.0709513,-0.230105,0.0926798,0.030208,-0.0016141,0.0146898,0.0493891,-0.0625255,0.133061,-0.0016735
1413393225705760512,-2.08832,-0.450603,1.87768,0.571263,-0.162755,-0.800675,-0.0780375,-0.223782,0.120916,0.0550625,-0.00160045,0.0147032,0.0495017,-0.0624182,0.133353,-0.00156273
1413393225755760384,-2.09937,-0.444153,1.88082,0.57055,-0.172765,-0.798004,-0.0884071,-0.227501,0.133245,0.0617826,-0.00157686,0.0147126,0.0495459,-0.062251,0.134184,-0.00223237
1413393225805760512,-2.10991,-0.436435,1.88444,0.569799,-0.181627,-0.79515,-0.100388,-0.204664,0.168278,0.0887134,-0.00153238,0.0147359,0.0496411,-0.0623874,0.135149,-0.00236099
1413393225855760384,-2.11959,-0.428075,1.88775,0.565808,-0.190881,-0.79374,-0.11577,-0.188765,0.173332,0.0310778,-0.00151935,0.0147379,0.049661,-0.0605711,0.136111,-0.00358375
1413393225905760512,-2.12884,-0.419291,1.88773,0.564769,-0.195975,-0.791624,-0.12634,-0.185488,0.173535,-0.06044,-0.00145887,0.0147187,0.0497274,-0.0583959,0.136654,-0.00368889
1413393225955760384,-2.13833,-0.410456,1.88212,0.560758,-0.203976,-0.789756,-0.142233,-0.195167,0.17917,-0.165399,-0.00141802,0.0147021,0.0498145,-0.0572726,0.137565,-0.00442874
1413393226005760512,-2.14824,-0.401997,1.8715,0.559537,-0.210617,-0.786343,-0.155643,-0.196586,0.17064,-0.238076,-0.00142087,0.0146815,0.0498228,-0.0559819,0.138625,-0.0054704
1413393226055760384,-2.1584,-0.393829,1.85928,0.558723,-0.221513,-0.781811,-0.165927,-0.205059,0.15905,-0.253767,-0.00138091,0.0146571,0.0498971,-0.0544978,0.139267,-0.00587507
1413393226105760512,-2.16885,-0.386986,1.83953,0.55798,-0.233032,-0.777466,-0.17292,-0.212527,0.132309,-0.247764,-0.001362,0.01461,0.0499325,-0.0530214,0.139734,-0.00686972
1413393226155760384,-2.17981,-0.380526,1.82547,0.557475,-0.244488,-0.772882,-0.179167,-0.220247,0.129617,-0.211042,-0.00128516,0.0145973,0.0499624,-0.0517905,0.140157,-0.00708907
1413393226205760512,-2.19083,-0.375042,1.81705,0.55623,-0.256424,-0.768535,-0.184958,-0.221262,0.107674,-0.147334,-0.00115779,0.0145564,0.0499665,-0.0507718,0.140279,-0.0071337
1413393226255760384,-2.20314,-0.36998,1.82107,0.553706,-0.270734,-0.764135,-0.19029,-0.241045,0.112908,-0.0769348,-0.000739955,0.0145536,0.0498973,-0.050918,0.138938,-0.00508958
1413393226305760512,-2.21934,-0.367221,1.85889,0.548865,-0.28915,-0.758165,-0.200811,-0.223778,0.11467,-0.0607043,0.000266915,0.0145387,0.0495525,-0.0426446,0.136009,0.00131237
1413393226355760384,-2.23833,-0.351963,1.84756,0.55058,-0.279609,-0.763897,-0.187465,-0.237136,0.0990279,-0.0194175,-0.00142524,0.0146696,0.0502281,-0.0410119,0.141447,0.0119324
1413393226405760512,-2.23819,-0.364301,1.84068,0.541413,-0.305616,-0.756584,-0.202614,-0.230952,0.106905,-0.0267255,0.000511714,0.0145759,0.0496818,-0.0365723,0.128722,0.0175992
1413393226455760384,-2.26151,-0.352607,1.83928,0.53761,-0.310369,-0.75782,-0.200887,-0.240119,0.10933,-0.0505685,0.000389122,0.0145127,0.0497294,-0.0321651,0.133945,0.0188658
1413393226505760512,-2.27337,-0.330885,1.76123,0.533757,-0.314542,-0.758666,-0.201479,-0.252713,0.115969,-0.0962378,0.000444655,0.0144579,0.0498987,-0.0322571,0.115767,0.0162102
1413393226555760384,-2.28576,-0.332468,1.84441,0.537846,-0.304182,-0.762887,-0.190259,-0.259413,0.115343,-0.131899,-0.000917029,0.0142284,0.050404,-0.0467156,0.13388,-0.0294328
1413393226605760512,-2.29421,-0.319843,1.62427,0.528935,-0.321958,-0.759446,-0.199532,-0.252924,0.139694,-0.159679,0.000428659,0.0143078,0.0499257,-0.0263109,0.115532,0.0117122
1413393226655760384,-2.30179,-0.3121,1.59406,0.527659,-0.322651,-0.75977,-0.200554,-0.267707,0.158676,-0.142221,0.000403164,0.0142492,0.0500099,-0.0256118,0.107111,0.00783723
1413393226705760512,-2.31577,-0.303484,1.58684,0.527535,-0.320221,-0.759401,-0.206095,-0.283911,0.178794,-0.136614,0.000414702,0.0141662,0.0499853,-0.023887,0.105859,0.00692028
1413393226755760384,-2.33027,-0.29404,1.58137,0.528572,-0.317653,-0.75815,-0.211937,-0.285458,0.202298,-0.115858,0.000417325,0.0140658,0.050026,-0.0226013,0.105035,0.00631923
1413393226805760512,-2.34534,-0.284134,1.57492,0.528547,-0.314467,-0.758008,-0.217195,-0.314013,0.194043,-0.100141,0.000428505,0.0139717,0.0500169,-0.0216231,0.102815,0.0063795
1413393226855760384,-2.36097,-0.274462,1.56911,0.528758,-0.31165,-0.758082,-0.220457,-0.321969,0.197261,-0.12103,0.000401573,0.0139607,0.050001,-0.0233108,0.104684,0.00320945
1413393226905760512,-2.37701,-0.264823,1.55968,0.528141,-0.309046,-0.758518,-0.224073,-0.332635,0.196006,-0.105545,0.000385129,0.013956,0.0500412,-0.024164,0.107676,-0.000582534
1413393226955760384,-2.39436,-0.25545,1.55426,0.527992,-0.307555,-0.758822,-0.225443,-0.357214,0.184344,-0.0884902,0.000338309,0.0139576,0.0500395,-0.0263406,0.10756,-0.00332259
1413393227005760512,-2.41233,-0.246339,1.5504,0.527899,-0.30585,-0.759267,-0.226478,-0.368293,0.178637,-0.0871757,0.000300561,0.0139353,0.0500615,-0.0265985,0.108517,-0.0047227
1413393227055760384,-2.43078,-0.237603,1.54527,0.528715,-0.305648,-0.758881,-0.226141,-0.386381,0.173097,-0.0803163,0.00032527,0.0140094,0.0501765,-0.0287811,0.112101,-0.00598067
1413393227105760512,-2.44969,-0.229374,1.53447,0.530402,-0.305799,-0.757849,-0.225447,-0.398365,0.159305,-0.0846566,0.000424866,0.0140781,0.0502588,-0.029187,0.119199,-0.00840119
1413393227155760384,-2.47017,-0.221676,1.5291,0.532494,-0.306439,-0.75673,-0.223394,-0.408712,0.152396,-0.072727,0.000318098,0.0140413,0.0502856,-0.0319357,0.116081,-0.0096065
1413393227205760512,-2.49088,-0.214282,1.52222,0.534653,-0.307288,-0.755559,-0.221023,-0.41458,0.147115,-0.0559652,0.000265528,0.014156,0.0502912,-0.0372486,0.117174,-0.0118027
1413393227255760384,-2.51173,-0.207217,1.51527,0.537535,-0.309511,-0.753688,-0.21729,-0.414995,0.145356,-0.0349738,0.000145686,0.0144205,0.0504222,-0.0478377,0.118338,-0.0126249
1413393227305760512,-2.53229,-0.200086,1.51403,0.537851,-0.310568,-0.753584,-0.215348,-0.413504,0.140454,-0.0481307,0.000146529,0.0144225,0.0504638,-0.0471289,0.118734,-0.0118065
1413393227355760384,-2.55884,-0.195333,1.46805,0.541559,-0.29976,-0.758893,-0.202335,-0.416449,0.125866,-0.0365162,-0.00113421,0.0147119,0.050834,-0.0334496,0.150978,0.0267753
1413393227405760512,-2.57954,-0.188966,1.4618,0.541444,-0.301444,-0.758749,-0.200675,-0.41033,0.133812,-0.0312691,-0.00121973,0.0149876,0.0509262,-0.0411566,0.15647,0.0225679
1413393227455760384,-2.59999,-0.182157,1.45809,0.541636,-0.302944,-0.758326,-0.199492,-0.408729,0.139466,-0.0320725,-0.00119743,0.0149642,0.0510563,-0.0410423,0.15573,0.0230034
1413393227505760512,-2.6204,-0.175143,1.45682,0.541818,-0.303771,-0.757915,-0.199307,-0.406228,0.143827,-0.0364855,-0.00115464,0.0149545,0.0511568,-0.0417824,0.153545,0.0233788
1413393227555760384,-2.64038,-0.167337,1.45499,0.54288,-0.305796,-0.756254,-0.199624,-0.398568,0.160371,-0.0316948,-0.000993817,0.0151253,0.0513583,-0.0468633,0.155937,0.0235049
1413393227605760512,-2.66005,-0.159065,1.45308,0.543559,-0.309099,-0.754247,-0.200282,-0.390848,0.169377,-0.0289137,-0.000955329,0.015203,0.0515144,-0.0501785,0.156109,0.0233874
1413393227655760384,-2.67919,-0.150116,1.44991,0.543249,-0.312785,-0.752421,-0.202261,-0.37925,0.186766,-0.0203488,-0.000935978,0.0153265,0.0515381,-0.0540031,0.159453,0.0207121
1413393227705760512,-2.69742,-0.140391,1.43731,0.542394,-0.31815,-0.750196,-0.204438,-0.362734,0.20397,-0.0223576,-0.00115986,0.0153744,0.0514853,-0.0561117,0.167817,0.0112899
1413393227755760384,-2.71519,-0.130154,1.43407,0.541544,-0.324102,-0.747514,-0.207152,-0.346932,0.214566,-0.0330785,-0.00124638,0.0153774,0.0515348,-0.0569172,0.169,0.0102263
1413393227805760512,-2.73232,-0.11938,1.43413,0.539655,-0.329383,-0.74518,-0.212098,-0.331862,0.220503,-0.0485485,-0.00130995,0.0153945,0.0515417,-0.0580338,0.167724,0.00892759
1413393227855760384,-2.74853,-0.108182,1.43193,0.538799,-0.337059,-0.741291,-0.215813,-0.313816,0.240175,-0.048483,-0.00135051,0.0153988,0.0516127,-0.0597836,0.163904,0.00962839
1413393227905760512,-2.76401,-0.0962114,1.42506,0.536797,-0.344691,-0.737728,-0.220895,-0.308665,0.248031,-0.035508,-0.00116227,0.0153622,0.0518513,-0.0579112,0.160953,0.0150423
1413393227955760384,-2.77876,-0.0837357,1.42069,0.535865,-0.352727,-0.732842,-0.226661,-0.284848,0.258062,-0.0364197,-0.00123804,0.0154024,0.0518293,-0.0614375,0.157885,0.0140965
1413393228005760512,-2.7923,-0.0703701,1.41889,0.533726,-0.362231,-0.727925,-0.232489,-0.256708,0.276582,-0.0494396,-0.00125456,0.0154449,0.0518548,-0.0631484,0.158229,0.013006
1413393228055760384,-2.80493,-0.0563312,1.41794,0.530892,-0.371496,-0.722834,-0.240116,-0.252803,0.280066,-0.0529156,-0.00123573,0.0155291,0.0519374,-0.0651686,0.160665,0.0119273
1413393228105760512,-2.81684,-0.0418141,1.41643,0.527806,-0.380902,-0.717943,-0.246765,-0.236469,0.291062,-0.0251337,-0.00103452,0.0155308,0.0521118,-0.062486,0.164648,0.0146647
1413393228155760384,-2.82814,-0.0272248,1.4146,0.523591,-0.390122,-0.713333,-0.254586,-0.214706,0.297364,-0.0452188,-0.00114217,0.015595,0.0521425,-0.0672431,0.161877,0.0143086
1413393228205760512,-2.83894,-0.0122791,1.41283,0.519306,-0.399439,-0.709019,-0.260888,-0.213448,0.301355,-0.031383,-0.00116395,0.0156847,0.0521464,-0.0706678,0.161343,0.0133955
1413393228255760384,-2.84932,0.00298408,1.41211,0.514946,-0.406501,-0.705481,-0.268111,-0.202545,0.308005,-0.0213617,-0.00118027,0.0157842,0.0522,-0.0741389,0.159951,0.0134964
1413393228305760512,-2.8593,0.0186332,1.41098,0.51106,-0.412955,-0.702023,-0.274682,-0.197682,0.313689,-0.0137304,-0.00120059,0.015827,0.052261,-0.0749513,0.159607,0.0122955
1413393228355760384,-2.86854,0.0353204,1.41147,0.507117,-0.418195,-0.699302,-0.280933,-0.197787,0.322441,0.00121847,-0.00105994,0.0159151,0.0524496,-0.0730905,0.165998,0.0141893
1413393228405760512,-2.87826,0.051449,1.41295,0.503626,-0.424162,-0.695548,-0.287507,-0.18239,0.330867,0.00912175,-0.00117339,0.0159907,0.0524052,-0.0777522,0.162886,0.0119165
1413393228455760384,-2.88752,0.0679721,1.41298,0.500765,-0.431033,-0.691072,-0.293026,-0.179699,0.336234,0.0185611,-0.00119031,0.0160177,0.0524155,-0.0785477,0.162042,0.011517
1413393228505760512,-2.89677,0.0845857,1.41244,-0.499282,0.43654,0.685887,0.299515,-0.189967,0.331909,0.0193752,-0.00118708,0.0160758,0.0524731,-0.07898,0.161282,0.0115696
1413393228555760384,-2.90589,0.101083,1.41241,-0.497416,0.442951,0.680761,0.304855,-0.170038,0.335555,0.0141873,-0.00120675,0.0159543,0.0525107,-0.0732671,0.158578,0.0100251
1413393228605760512,-2.91462,0.117731,1.41338,-0.493938,0.449581,0.67685,0.309478,-0.173122,0.333724,0.0186687,-0.00121813,0.0159533,0.0525558,-0.0713296,0.158099,0.00941238
1413393228655760384,-2.92354,0.134171,1.4149,-0.491663,0.455544,0.67318,0.31237,-0.18166,0.330129,0.0246968,-0.00121933,0.0160203,0.0525954,-0.0721104,0.157828,0.0100778
1413393228705760512,-2.93236,0.150678,1.41726,-0.488531,0.459519,0.67117,0.31577,-0.169972,0.336264,0.0182954,-0.00123949,0.0160143,0.0526302,-0.0706506,0.156975,0.0104097
1413393228755760384,-2.94117,0.16732,1.41617,-0.486133,0.463939,0.669063,0.317476,-0.181682,0.336388,0.0242649,-0.00127081,0.0159928,0.0527224,-0.0662669,0.155337,0.0108624
1413393228805760512,-2.9504,0.184587,1.41869,-0.48344,0.468455,0.668259,0.31665,-0.190193,0.351397,0.00874284,-0.00127369,0.0160579,0.0527077,-0.0674659,0.155807,0.0107178
1413393228855760384,-2.95967,0.20245,1.41773,-0.480935,0.472938,0.667669,0.315039,-0.180386,0.361012,-0.00372813,-0.00126511,0.0159728,0.0527984,-0.062375,0.155456,0.0118722
1413393228905760512,-2.96872,0.22075,1.41815,-0.477459,0.476519,0.668774,0.312578,-0.178637,0.374743,-0.00121047,-0.00126131,0.0160064,0.0528254,-0.0607773,0.155382,0.0119314
1413393228955760384,-2.97764,0.239927,1.41754,-0.476017,0.478634,0.668732,0.311633,-0.181788,0.389284,-0.01302,-0.0012583,0.0160909,0.0528642,-0.0617684,0.155598,0.0129021
1413393229005760512,-2.98649,0.260166,1.41666,-0.474162,0.47871,0.669089,0.313572,-0.169415,0.419379,-0.00592179,-0.0012719,0.0161024,0.0528915,-0.0615824,0.155253,0.0140392
1413393229055760384,-2.9953,0.281795,1.4156,-0.471435,0.475254,0.671236,0.318317,-0.182864,0.443757,-0.0282753,-0.0012879,0.0161582,0.0529025,-0.0632974,0.155287,0.015925
1413393229105760512,-3.00451,0.304252,1.41455,-0.470544,0.471706,0.672033,0.323192,-0.186051,0.45227,-0.050708,-0.0012711,0.0162066,0.0529205,-0.0633767,0.155761,0.0171136
1413393229155760384,-3.01414,0.326969,1.4186,-0.469175,0.46849,0.673149,0.32751,-0.188588,0.451061,-0.0392419,-0.00123459,0.0162692,0.0529969,-0.0608475,0.156327,0.016376
1413393229205760512,-3.02418,0.349721,1.41266,-0.46789,0.465233,0.674626,0.330933,-0.214079,0.449339,-0.0647391,-0.00101099,0.0163267,0.0529565,-0.0569697,0.162063,0.0140439
1413393229255760384,-3.03539,0.372281,1.40789,-0.467335,0.46232,0.675706,0.333587,-0.23009,0.445722,-0.0787443,-0.000882747,0.0164315,0.0530543,-0.0578194,0.165194,0.0153841
1413393229305760512,-3.0473,0.394545,1.40344,-0.467685,0.459962,0.675907,0.33594,-0.238824,0.442319,-0.0900097,-0.000832839,0.0164631,0.0530984,-0.0561597,0.166127,0.0167509
1413393229355760384,-3.06051,0.416541,1.40291,-0.468873,0.458063,0.675737,0.337218,-0.274829,0.442793,-0.103586,-0.000788343,0.0164352,0.0531548,-0.0531483,0.165493,0.0184227
1413393229405760512,-3.07454,0.438621,1.39558,-0.471044,0.457358,0.67491,0.336805,-0.29367,0.439397,-0.118285,-0.000663446,0.016491,0.0532233,-0.0517217,0.16723,0.0190811
1413393229455760384,-3.08967,0.460417,1.38956,-0.474943,0.458315,0.672683,0.334476,-0.302868,0.43176,-0.115103,-0.000574039,0.0165126,0.0532624,-0.0490659,0.168337,0.0195235
1413393229505760512,-3.10536,0.481887,1.3844,-0.479083,0.45982,0.670654,0.330558,-0.323382,0.422556,-0.116318,-0.000482047,0.0165644,0.0533076,-0.0471395,0.169678,0.0197437
1413393229555760384,-3.1211,0.502856,1.36797,-0.481421,0.462572,0.669192,0.326256,-0.324995,0.421204,-0.101217,-0.000416835,0.0165874,0.0533079,-0.0436193,0.171406,0.017853
1413393229605760512,-3.13728,0.523865,1.3659,-0.483347,0.46537,0.668323,0.321172,-0.308988,0.425192,-0.0900389,-0.000368321,0.0166219,0.0533531,-0.0414108,0.172233,0.0171135
1413393229655760384,-3.15295,0.545002,1.36241,-0.483535,0.468246,0.668629,0.316032,-0.315219,0.420799,-0.0859283,-0.000360759,0.0167286,0.0533457,-0.0416998,0.173004,0.0165772
1413393229705760512,-3.16813,0.566362,1.3582,-0.482295,0.470064,0.669865,0.31259,-0.298393,0.432377,-0.0726002,-0.000325918,0.0166605,0.0534048,-0.0342552,0.171154,0.0158861
1413393229755760384,-3.18293,0.588083,1.35387,-0.480739,0.471505,0.671356,0.309604,-0.296632,0.437449,-0.0535736,-0.000337134,0.0166105,0.0534762,-0.0291566,0.168429,0.0148871
1413393229805760512,-3.19781,0.610371,1.35519,-0.477922,0.473213,0.673558,0.306561,-0.289612,0.454164,-0.0382196,-0.000412199,0.0165158,0.0535535,-0.0236968,0.161268,0.0156181
1413393229855760384,-3.21119,0.633991,1.36034,-0.474005,0.474279,0.676998,0.303401,-0.281201,0.470312,-0.0164937,-6.86183e-05,0.0166902,0.0535296,-0.0203985,0.172603,0.0233192
1413393229905760512,-3.22498,0.657841,1.36276,-0.471197,0.475153,0.67934,0.301164,-0.278675,0.481974,-0.000272987,-4.11882e-05,0.0167069,0.0536011,-0.01812,0.169076,0.0270776
1413393229955760384,-3.23908,0.68234,1.37066,-0.469723,0.474569,0.680847,0.300985,-0.280052,0.512007,0.0110018,-0.000209635,0.0166651,0.0536545,-0.019214,0.159348,0.0235688
1413393230005760512,-3.25314,0.708309,1.37556,-0.467859,0.472328,0.682629,0.303367,-0.27347,0.538153,0.0573728,-0.000257061,0.0166642,0.053735,-0.020793,0.152294,0.0237917
1413393230055760384,-3.26782,0.735335,1.37973,-0.467567,0.467552,0.683525,0.309143,-0.29137,0.559085,0.0570743,-0.000361307,0.0166289,0.0538036,-0.0216864,0.14268,0.0188603
1413393230105760512,-3.28254,0.763477,1.38258,-0.467243,0.463216,0.684375,0.314237,-0.295101,0.573377,0.0453413,-0.000358195,0.0166461,0.053832,-0.0226524,0.141154,0.0154928
1413393230155760384,-3.29804,0.792266,1.38354,-0.467529,0.459904,0.684615,0.318131,-0.311585,0.58239,0.0403001,-0.000319238,0.016654,0.0538861,-0.0221609,0.138671,0.0146528
1413393230205760512,-3.31404,0.821212,1.37887,-0.467404,0.456878,0.685303,0.321178,-0.335033,0.580132,0.0200101,-0.000368814,0.0166501,0.0539633,-0.0218277,0.136057,0.0107938
1413393230255760384,-3.33134,0.850305,1.3805,-0.468914,0.454713,0.68474,0.323245,-0.351058,0.584374,-0.000109923,-0.000350182,0.0166373,0.0540139,-0.0200546,0.13469,0.00918235
1413393230305760512,-3.34947,0.879309,1.37934,-0.471143,0.453243,0.683756,0.324148,-0.369249,0.582248,-0.00719161,-0.000318856,0.0166712,0.0540466,-0.019903,0.134734,0.0084385
1413393230355760384,-3.36894,0.907912,1.38085,-0.472817,0.454497,0.682671,0.322237,-0.380275,0.573209,-0.0441367,-0.000315015,0.0166571,0.0541052,-0.0198198,0.131501,0.00628372
1413393230405760512,-3.40675,0.932926,1.39177,-0.473208,0.462403,0.674187,0.328222,-0.392757,0.585262,-0.0521511,0.000559969,0.0163006,0.0540152,-0.0372187,0.119089,-0.0487391
1413393230455760384,-3.43563,0.961636,1.38563,-0.473346,0.46728,0.670118,0.329445,-0.398734,0.602321,-0.0478241,0.00091058,0.0162163,0.0539959,-0.0434908,0.11155,-0.0662182
1413393230505760512,-3.45406,0.991821,1.39066,-0.474373,0.471252,0.667555,0.327509,-0.399967,0.60484,-0.0275568,0.000906788,0.0162507,0.0540362,-0.0417291,0.110235,-0.0634861
1413393230555760384,-3.4712,1.02213,1.40581,-0.474488,0.476604,0.663943,0.32694,-0.387093,0.610553,-0.0480382,0.000919776,0.0162501,0.0540965,-0.0434015,0.108109,-0.0668084
1413393230605760512,-3.46001,1.05644,1.47693,-0.476634,0.475571,0.667333,0.318306,-0.371264,0.614859,-0.0396857,-7.62788e-05,0.0165011,0.0543034,-0.0198145,0.128697,-0.00706682
1413393230655760384,-3.47843,1.0878,1.47704,-0.475173,0.483522,0.662247,0.319134,-0.366296,0.622258,-0.0166336,-5.3408e-05,0.0165096,0.0543369,-0.0180754,0.128571,-0.00560687
1413393230705760512,-3.49647,1.11982,1.47818,-0.472456,0.490741,0.657382,0.322192,-0.353912,0.652576,0.0350313,-3.94197e-05,0.0164766,0.054396,-0.0142139,0.125213,-0.00435777
1413393230755760384,-3.51439,1.15223,1.48221,-0.469818,0.498883,0.651353,0.325769,-0.329983,0.660572,0.0470537,-2.47849e-05,0.0163938,0.0544459,-0.0104786,0.121017,-0.00615702
1413393230805760512,-3.53068,1.18496,1.48645,-0.466853,0.506929,0.645215,0.329803,-0.318766,0.67392,0.0624814,-2.47818e-05,0.0163554,0.0544871,-0.0078817,0.118946,-0.00768674
1413393230855760384,-3.54575,1.21885,1.48843,-0.462294,0.514899,0.639252,0.335441,-0.287599,0.697833,0.0741715,-9.39919e-06,0.0163627,0.0545196,-0.00761012,0.11941,-0.00950699
1413393230905760512,-3.55956,1.25387,1.49194,-0.456826,0.522415,0.633354,0.342425,-0.27438,0.713313,0.103455,-4.32956e-06,0.0163532,0.0545536,-0.00691959,0.119727,-0.00836367
1413393230955760384,-3.57214,1.28975,1.49553,-0.44982,0.528418,0.628699,0.350962,-0.25652,0.725165,0.117587,2.78985e-05,0.0163554,0.0545838,-0.00701354,0.123165,-0.00798919
1413393231005760512,-3.58448,1.32646,1.50378,-0.442151,0.533045,0.624917,0.36034,-0.241523,0.735771,0.130086,5.22217e-05,0.0163746,0.0546328,-0.00742192,0.125166,-0.00682234
1413393231055760384,-3.59672,1.36367,1.51013,-0.434301,0.536185,0.622354,0.369547,-0.245012,0.752382,0.118661,6.06026e-05,0.0163288,0.0546715,-0.00458038,0.123226,-0.00458984
1413393231105760512,-3.6092,1.40107,1.51304,-0.428361,0.538501,0.619522,0.377778,-0.26629,0.751506,0.116749,2.75796e-05,0.0163113,0.0547227,-0.00656019,0.122131,-0.00702733
1413393231155760384,-3.62262,1.43881,1.52015,-0.423256,0.540602,0.617094,0.384446,-0.278115,0.754433,0.129876,4.2558e-05,0.0162903,0.0547698,-0.00758421,0.12278,-0.00659603
1413393231205760512,-3.63709,1.47657,1.52651,-0.419541,0.543649,0.614488,0.388377,-0.295649,0.760613,0.128988,4.3423e-05,0.0162911,0.0547997,-0.0106409,0.123312,-0.00609536
1413393231255760384,-3.65323,1.51433,1.53477,-0.416192,0.545529,0.612541,0.392397,-0.331877,0.757424,0.122741,8.33776e-06,0.0162599,0.0548402,-0.0124604,0.12058,-0.00736644
1413393231305760512,-3.67059,1.55165,1.54097,-0.41552,0.548203,0.609499,0.394117,-0.342207,0.749193,0.0768911,5.52351e-06,0.0162308,0.0548905,-0.0140215,0.118579,-0.010056
1413393231355760384,-3.69005,1.58892,1.54659,-0.415937,0.551572,0.605778,0.394713,-0.35325,0.750011,0.0272363,4.2757e-05,0.0162411,0.0549295,-0.017743,0.113858,-0.0137833
1413393231405760512,-3.71027,1.62708,1.54677,-0.418193,0.554805,0.601506,0.394331,-0.3687,0.756439,-0.0102867,6.59753e-05,0.0162341,0.0549802,-0.0216513,0.109603,-0.0187599
1413393231455760384,-3.72931,1.66476,1.54524,-0.42297,0.557115,0.596191,0.394052,-0.36088,0.758715,-0.0426933,7.87005e-05,0.0162396,0.0550392,-0.0253386,0.108264,-0.0220968
1413393231505760512,-3.74762,1.70252,1.54204,-0.429763,0.558156,0.590039,0.394488,-0.36562,0.748456,-0.0871008,6.72318e-05,0.0162424,0.0551293,-0.0266063,0.108379,-0.0221228
1413393231555760384,-3.76577,1.7401,1.53793,-0.438094,0.557127,0.583546,0.396432,-0.364509,0.739943,-0.135811,6.48497e-05,0.0162637,0.0551741,-0.0274478,0.110064,-0.0199512
1413393231605760512,-3.78311,1.77688,1.5338,-0.445767,0.55606,0.577334,0.398466,-0.334808,0.717191,-0.166837,8.24289e-05,0.0163166,0.0551896,-0.0291585,0.113233,-0.0173651
1413393231655760384,-3.79923,1.81227,1.52679,-0.450666,0.556017,0.572427,0.400091,-0.326735,0.686872,-0.183114,0.000109862,0.0163486,0.055207,-0.0301517,0.117624,-0.0152981
1413393231705760512,-3.81467,1.84602,1.51842,-0.45185,0.556603,0.569736,0.401778,-0.296999,0.656751,-0.184012,0.000101498,0.0163859,0.0552814,-0.0315926,0.11826,-0.0130262
1413393231755760384,-3.82874,1.87802,1.50901,-0.450219,0.559578,0.567532,0.402596,-0.262683,0.626374,-0.171928,9.63542e-05,0.0163669,0.0553441,-0.0332858,0.118121,-0.0123597
1413393231805760512,-3.84169,1.90838,1.50098,-0.447674,0.563941,0.565613,0.402046,-0.2565,0.586735,-0.16452,9.51642e-05,0.0163752,0.0553631,-0.0347762,0.118508,-0.0132963
1413393231855760384,-3.85353,1.93705,1.49354,-0.445547,0.570116,0.562764,0.39969,-0.221174,0.556591,-0.152732,7.2411e-05,0.0163913,0.0554587,-0.036205,0.11877,-0.0140118
1413393231905760512,-3.86379,1.96462,1.48653,-0.441204,0.578354,0.559847,0.396758,-0.182934,0.53784,-0.127676,6.26943e-05,0.0163812,0.0555013,-0.0376001,0.118768,-0.0146323
1413393231955760384,-3.87231,1.99125,1.48048,-0.437626,0.586229,0.555894,0.394718,-0.157208,0.532356,-0.112499,2.83992e-05,0.0163972,0.0555407,-0.0395561,0.118652,-0.0156981
1413393232005760512,-3.8788,2.01724,1.47535,-0.433836,0.593912,0.551111,0.394122,-0.108799,0.512228,-0.104033,1.08984e-05,0.0164053,0.0555303,-0.0421692,0.11884,-0.0173613
1413393232055760384,-3.88244,2.04332,1.47269,-0.427741,0.60055,0.547372,0.395931,-0.0655755,0.516734,-0.0665229,0.000149155,0.0165607,0.0555768,-0.0445781,0.125514,-0.0130599
1413393232105760512,-3.88501,2.06869,1.4706,-0.421674,0.606404,0.54306,0.399439,-0.0323194,0.499034,-0.0430784,0.00013496,0.0165455,0.0556317,-0.0444847,0.1243,-0.0123737
1413393232155760384,-3.88548,2.09352,1.4681,-0.415337,0.612166,0.538195,0.403849,0.00946876,0.48937,-0.0470643,0.000122081,0.0165498,0.0556346,-0.0465343,0.124887,-0.0131384
1413393232205760512,-3.88497,2.11779,1.46966,-0.408737,0.615918,0.533086,0.411581,0.0396075,0.492706,-0.0399072,-2.78567e-05,0.0165194,0.0556373,-0.0493349,0.120282,-0.0168496
1413393232255760384,-3.88304,2.14195,1.46698,-0.402749,0.620382,0.527199,0.418308,0.062363,0.489465,-0.0728247,-0.0002252,0.0164932,0.0556359,-0.053628,0.114679,-0.0199154
1413393232305760512,-3.87945,2.16619,1.45836,-0.396935,0.624986,0.520931,0.424813,0.093928,0.48521,-0.104434,-0.000376414,0.0165581,0.0556349,-0.0590953,0.109628,-0.0190306
1413393232355760384,-3.87443,2.19052,1.45352,-0.392081,0.63114,0.513357,0.429418,0.110903,0.485861,-0.1387,-0.000424688,0.0165909,0.0556255,-0.0606912,0.109395,-0.0194446
1413393232405760512,-3.86813,2.21474,1.44607,-0.386159,0.637534,0.507043,0.432828,0.137627,0.484208,-0.153452,-0.000425263,0.0165908,0.0556261,-0.0624296,0.109228,-0.0194094
1413393232455760384,-3.86055,2.23885,1.43682,-0.380383,0.643624,0.500363,0.436685,0.160884,0.478772,-0.192018,-0.000476426,0.0166029,0.0556071,-0.0636652,0.109623,-0.0190938
1413393232505760512,-3.85191,2.26302,1.42523,-0.375289,0.649842,0.493591,0.439581,0.178157,0.485275,-0.224695,-0.000502982,0.0166114,0.0556138,-0.0651096,0.110417,-0.0183909
1413393232555760384,-3.84231,2.28756,1.41489,-0.371095,0.654887,0.487682,0.442241,0.196533,0.49173,-0.258469,-0.000536003,0.016668,0.0556923,-0.0654577,0.112601,-0.0169072
1413393232605760512,-3.83085,2.31268,1.40156,-0.367243,0.65885,0.483396,0.444271,0.207478,0.488633,-0.286604,-0.00017073,0.0167903,0.0558455,-0.0625679,0.123786,-0.00907114
1413393232655760384,-3.81938,2.33727,1.38864,-0.364829,0.662454,0.478683,0.446002,0.237753,0.488461,-0.262814,-1.98045e-05,0.0169457,0.055961,-0.0639792,0.128519,-0.00513577
1413393232705760512,-3.80701,2.36191,1.37726,-0.362964,0.664886,0.474871,0.447975,0.244902,0.493321,-0.251634,8.43234e-05,0.0171511,0.0560905,-0.066109,0.132507,-0.00188935
1413393232755760384,-3.79402,2.38642,1.366,-0.360063,0.666164,0.473179,0.450202,0.267628,0.4878,-0.225848,9.97792e-05,0.0170955,0.056212,-0.0641391,0.132578,-0.000731774
1413393232805760512,-3.78038,2.41085,1.35406,-0.357674,0.667534,0.471625,0.451705,0.298101,0.496189,-0.218977,0.00011738,0.0170794,0.056186,-0.0676932,0.130411,-0.00101381
1413393232855760384,-3.76608,2.43599,1.34326,-0.35659,0.668078,0.470006,0.453441,0.304807,0.505938,-0.207882,0.000125271,0.0171218,0.0561554,-0.0748516,0.126799,-0.00124034
1413393232905760512,-3.75135,2.46076,1.33373,-0.354453,0.668731,0.470041,0.454119,0.326792,0.500557,-0.194903,0.000232757,0.0173032,0.0558999,-0.0891637,0.126857,-0.0077833
1413393232955760384,-3.73451,2.48569,1.32564,-0.350673,0.667807,0.471705,0.456681,0.346868,0.499826,-0.147959,0.00024904,0.0175504,0.0558901,-0.0976926,0.130263,-0.00953285
1413393233005760512,-3.71771,2.51125,1.32039,-0.347252,0.667186,0.473652,0.458184,0.353765,0.514016,-0.115242,0.000156063,0.0175731,0.0561531,-0.100061,0.124702,-0.00746225
1413393233055760384,-3.69927,2.53732,1.31681,-0.343808,0.666223,0.47624,0.459498,0.363313,0.523231,-0.0746108,7.48926e-05,0.0177332,0.0564338,-0.0948233,0.122123,-0.000408757
1413393233105760512,-3.68101,2.56377,1.31656,-0.34055,0.666101,0.478582,0.459669,0.379513,0.518211,-0.0405021,2.84647e-05,0.0177874,0.0567368,-0.0871819,0.114271,0.00745591
1413393233155760384,-3.66214,2.5903,1.31581,-0.339149,0.665335,0.479971,0.460364,0.378538,0.533615,0.00270419,1.42752e-05,0.0179209,0.0567404,-0.0878219,0.113999,0.00807345
1413393233205760512,-3.64297,2.61752,1.31715,-0.337983,0.663996,0.480988,0.46209,0.383829,0.552799,0.055311,1.4314e-05,0.017921,0.0567405,-0.0888924,0.114168,0.00849593
1413393233255760384,-3.62325,2.64518,1.32136,-0.337372,0.662415,0.479463,0.466371,0.400786,0.548003,0.0965211,1.43118e-05,0.0179211,0.0567405,-0.089961,0.114368,0.0089596
1413393233305760512,-3.60335,2.67303,1.32752,-0.336511,0.661009,0.4775,0.470979,0.393773,0.562944,0.142253,1.43073e-05,0.0179212,0.0567406,-0.0910279,0.114597,0.00946346
1413393233355760384,-3.58349,2.70109,1.33581,-0.336339,0.659714,0.473608,0.476811,0.398432,0.563581,0.197384,1.43027e-05,0.0179212,0.0567407,-0.0920945,0.114853,0.0100029
1413393233405760512,-3.56361,2.72886,1.34582,-0.33631,0.659495,0.467968,0.482667,0.394823,0.549183,0.208278,1.42984e-05,0.0179213,0.0567408,-0.0931607,0.115135,0.0105738
1413393233455760384,-3.54461,2.75651,1.35774,-0.337471,0.661491,0.459719,0.487034,0.38424,0.546827,0.257446,-8.2203e-06,0.0179415,0.0569349,-0.091421,0.110319,0.013327
1413393233505760512,-3.52588,2.78345,1.37394,-0.334009,0.663387,0.454242,0.491956,0.375795,0.518277,0.301399,-1.17927e-05,0.0179439,0.0571216,-0.0886611,0.106432,0.0157436
1413393233555760384,-3.50822,2.8094,1.39116,-0.330922,0.667459,0.447266,0.494918,0.372831,0.498417,0.307421,-7.10311e-05,0.0178928,0.0570193,-0.0846407,0.101535,0.0141738
1413393233605760512,-3.4901,2.83467,1.40782,-0.323853,0.672005,0.44213,0.498046,0.368254,0.501759,0.354879,-0.000104796,0.017853,0.0570487,-0.0825463,0.0986624,0.0141752
1413393233655760384,-3.47261,2.85915,1.42456,-0.316039,0.678297,0.436544,0.499463,0.360859,0.492173,0.388703,-0.000180755,0.0177983,0.0569995,-0.0799699,0.0955297,0.0133486
1413393233705760512,-3.45501,2.88307,1.44383,-0.307597,0.685617,0.430566,0.499926,0.348153,0.482766,0.422769,-0.000154439,0.0178215,0.0571827,-0.0790133,0.0952861,0.0148942
1413393233755760384,-3.43771,2.90726,1.46697,-0.2995,0.689751,0.424086,0.504672,0.336905,0.485515,0.483922,-0.000136148,0.017897,0.0572896,-0.0792829,0.0959365,0.0158734
1413393233805760512,-3.42156,2.9311,1.49154,-0.294802,0.693401,0.416458,0.508774,0.314247,0.469106,0.505269,-0.000148404,0.0179462,0.0572921,-0.0791895,0.0961321,0.0167595
1413393233855760384,-3.40638,2.95485,1.51667,-0.291792,0.692614,0.40807,0.518287,0.287429,0.476368,0.493562,-0.000158424,0.0179995,0.0572953,-0.0789664,0.0962113,0.0176806
1413393233905760512,-3.39245,2.97836,1.54153,-0.29189,0.694892,0.399285,0.522012,0.270297,0.465721,0.491893,-0.000184229,0.0180368,0.0572828,-0.0786345,0.0957912,0.0187394
1413393233955760384,-3.37937,3.00128,1.56667,-0.289717,0.69706,0.390842,0.526701,0.264404,0.440615,0.485807,-0.000154861,0.0179705,0.0573415,-0.074452,0.0933294,0.0202411
1413393234005760512,-3.36767,3.02367,1.5932,-0.287929,0.701962,0.382414,0.527358,0.237173,0.432696,0.492609,-0.000110161,0.0177435,0.0574196,-0.0658094,0.0878472,0.0218294
1413393234055760384,-3.3569,3.0451,1.6249,-0.285785,0.707739,0.373966,0.526861,0.224683,0.409832,0.483311,-7.9717e-05,0.017433,0.0574633,-0.0495053,0.0832578,0.0220727
1413393234105760512,-3.34622,3.06508,1.65177,-0.281724,0.714135,0.366164,0.525896,0.221614,0.380701,0.470796,-0.000103102,0.0172661,0.0573773,-0.0413264,0.0811862,0.0218457
1413393234155760384,-3.33455,3.08324,1.66727,-0.277517,0.720268,0.359095,0.524642,0.212084,0.362454,0.429142,-0.000169445,0.0173415,0.0573259,-0.0410516,0.0846012,0.0204186
1413393234205760512,-3.32278,3.10057,1.6817,-0.275832,0.724864,0.35164,0.52425,0.218922,0.338037,0.403845,-0.000169742,0.0174753,0.0573811,-0.0432627,0.0871642,0.0213743
1413393234255760384,-3.31138,3.11681,1.70328,-0.27854,0.726707,0.340868,0.527373,0.235889,0.308726,0.367981,-0.000193752,0.0175764,0.0574087,-0.043748,0.0903663,0.0208948
1413393234305760512,-3.29948,3.13132,1.72516,-0.284913,0.727288,0.32811,0.531245,0.245022,0.279565,0.337489,-0.000199683,0.0176475,0.05748,-0.042931,0.0929315,0.0218949
1413393234355760384,-3.28665,3.14205,1.74329,-0.292476,0.727634,0.315783,0.534123,0.252412,0.2356,0.311662,-0.000300487,0.0176453,0.0575058,-0.0398848,0.0968123,0.0257035
1413393234405760512,-3.27569,3.13227,1.81779,-0.305727,0.725317,0.311324,0.532469,0.257307,0.184901,0.252476,-0.00111711,0.0175755,0.0576567,-0.0348429,0.142498,0.0409257
1413393234455760384,-3.2721,3.13424,1.87894,-0.310322,0.725816,0.301272,0.534908,0.251468,0.136014,0.215568,-0.00120055,0.0175439,0.0577307,-0.0336536,0.139387,0.0352036
1413393234505760512,-3.26307,3.14082,1.90254,-0.308891,0.72747,0.291852,0.538698,0.262632,0.0589042,0.176763,-0.00115273,0.0175465,0.0577137,-0.0315091,0.131873,0.0333419
1413393234555760384,-3.24944,3.14199,1.91475,-0.303618,0.729224,0.284728,0.543119,0.284083,-0.0324528,0.221593,-0.0011365,0.0175614,0.0577712,-0.0290737,0.131061,0.0328087
1413393234605760512,-3.23509,3.13878,1.92545,-0.290982,0.730293,0.282567,0.549688,0.306923,-0.0976338,0.223795,-0.0011266,0.0175397,0.0577989,-0.0263484,0.129213,0.0317182
1413393234655760384,-3.21909,3.13249,1.93967,-0.271524,0.729674,0.284458,0.559405,0.310125,-0.177556,0.294632,-0.00110948,0.017559,0.0578962,-0.0224463,0.126674,0.0332075
1413393234705760512,-3.20386,3.12086,1.95743,-0.249098,0.730257,0.287894,0.567268,0.281132,-0.256174,0.442757,-0.0011163,0.0175925,0.0578795,-0.0202474,0.133669,0.0306413
1413393234755760384,-3.19049,3.1065,1.97961,-0.229291,0.733053,0.289137,0.571365,0.245593,-0.296698,0.464874,-0.00111446,0.0176179,0.0579555,-0.0185797,0.135485,0.0327105
1413393234805760512,-3.17847,3.09065,2.0027,-0.209648,0.737732,0.290069,0.572416,0.21163,-0.311253,0.460302,-0.00111976,0.0176557,0.0579787,-0.0159161,0.139258,0.0331442
1413393234855760384,-3.16807,3.07397,2.02319,-0.195831,0.744519,0.286785,0.570172,0.184014,-0.317368,0.387829,-0.00112559,0.0176616,0.0579738,-0.0134712,0.146145,0.0316322
1413393234905760512,-3.15907,3.05783,2.04019,-0.188032,0.752302,0.279449,0.56621,0.16108,-0.312704,0.298158,-0.00114786,0.0176485,0.0579804,-0.0127669,0.151183,0.0303008
1413393234955760384,-3.15176,3.04268,2.05249,-0.182829,0.759081,0.270145,0.563376,0.136895,-0.301399,0.191742,-0.00118836,0.0176481,0.0579844,-0.0130995,0.152817,0.0280679
1413393235005760512,-3.14513,3.0276,2.06017,-0.181389,0.76604,0.257732,0.560227,0.120635,-0.294018,0.0882282,-0.001209,0.0176548,0.0579819,-0.0131029,0.156205,0.0262617
1413393235055760384,-3.13891,3.01262,2.06242,-0.181069,0.771849,0.244217,0.55841,0.116531,-0.289444,-0.0135768,-0.00121983,0.0176608,0.0580131,-0.0122649,0.158738,0.0263731
1413393235105760512,-3.13284,2.99759,2.06037,-0.179558,0.776992,0.230834,0.557457,0.115201,-0.29254,-0.107249,-0.00123491,0.0176722,0.0580522,-0.0108727,0.161039,0.0277926
1413393235155760384,-3.127,2.9826,2.05272,-0.1756,0.781818,0.219089,0.556709,0.122152,-0.2946,-0.183347,-0.00124917,0.0176987,0.0580641,-0.0110793,0.162301,0.029142
1413393235205760512,-3.12096,2.96793,2.04288,-0.166751,0.784729,0.210704,0.558568,0.123531,-0.298459,-0.204055,-0.00126326,0.0177244,0.0581034,-0.0120257,0.159697,0.0308385
1413393235255760384,-3.11468,2.95271,2.03205,-0.155236,0.788282,0.204307,0.55926,0.123278,-0.301392,-0.222884,-0.00127926,0.0177377,0.058136,-0.0125247,0.159388,0.0326555
1413393235305760512,-3.1053,2.93511,2.01806,-0.143198,0.791932,0.198904,0.559263,0.121182,-0.293722,-0.201624,-0.00128704,0.0177122,0.0581248,-0.0144987,0.191775,0.0313603
1413393235355760384,-3.09956,2.92103,2.00919,-0.130994,0.795496,0.195596,0.558363,0.118165,-0.275118,-0.194275,-0.00128124,0.017763,0.0581603,-0.0131836,0.182064,0.0398086
1413393235405760512,-3.0929,2.90743,1.99972,-0.120363,0.799307,0.193307,0.556106,0.11499,-0.246598,-0.174364,-0.00128216,0.0177699,0.0581978,-0.0144215,0.189166,0.0404555
1413393235455760384,-3.08882,2.89734,2.00123,-0.111602,0.80204,0.190966,0.554806,0.127841,-0.213849,-0.156477,-0.00128668,0.0177981,0.058255,-0.0137157,0.174117,0.0418402
1413393235505760512,-3.08312,2.88775,1.99979,-0.10365,0.804892,0.190145,0.552495,0.140939,-0.177365,-0.124172,-0.00129978,0.0178032,0.0583041,-0.0140939,0.16938,0.0417347
1413393235555760384,-3.09178,2.88032,1.99774,-0.0825506,0.80707,0.174062,0.558145,0.151518,-0.135319,-0.0813331,-0.000150583,0.0177796,0.0581338,-0.0209551,0.160353,0.0249405
1413393235605760512,-3.08472,2.86434,2.00319,-0.0683304,0.806054,0.174094,0.561515,0.150665,-0.0900418,-0.0982384,1.04403e-05,0.0178761,0.0579884,-0.0135035,0.150238,0.0427985
1413393235655760384,-3.06561,2.86992,2.0422,-0.0690358,0.803133,0.186848,0.561516,0.152601,-0.0292164,-0.0788145,-0.000950605,0.0180396,0.0580758,0.00932911,0.159078,0.0993809
1413393235705760512,-3.05414,2.86624,2.06992,-0.0645065,0.801515,0.187285,0.564214,0.135464,0.0396528,-0.0821376,-0.00108534,0.0181753,0.05802,0.0238893,0.155882,0.135966
1413393235755760384,-3.05747,2.86342,2.10615,-0.0575117,0.802043,0.176955,0.567544,0.117119,0.0993697,-0.0728841,-0.000548374,0.018225,0.057967,0.0218644,0.140487,0.134314
1413393235805760512,-3.03727,2.86824,2.11705,-0.0679835,0.801607,0.180732,0.56581,0.09186,0.163387,-0.0671563,-0.00126149,0.0183139,0.0579165,0.0417109,0.161497,0.188677
1413393235855760384,-3.04,2.87579,2.12179,-0.0750659,0.801861,0.169104,0.568145,0.0769669,0.203411,-0.0719983,-0.0010438,0.0183191,0.0579459,0.0353856,0.156798,0.180581
1413393235905760512,-3.03425,2.88746,2.1149,-0.0874777,0.802234,0.160116,0.568446,0.0556154,0.228505,-0.0764486,-0.00117579,0.0183698,0.0579745,0.0394997,0.155926,0.194433
1413393235955760384,-3.02913,2.89841,2.10575,-0.0982445,0.802888,0.150016,0.568519,0.0442974,0.246846,-0.0654067,-0.00124707,0.0184118,0.0580094,0.0390983,0.15175,0.205119
1413393236005760512,-3.02789,2.91086,2.10558,-0.104038,0.802587,0.140241,0.570406,0.0325793,0.238753,-0.0398402,-0.00124511,0.0184187,0.0580257,0.0371286,0.150278,0.203738
1413393236055760384,-3.02758,2.92298,2.10917,-0.108528,0.802919,0.129213,0.571705,0.0357229,0.229041,-0.0370279,-0.00122069,0.0184666,0.0580614,0.0319416,0.143689,0.203518
1413393236105760512,-3.02637,2.93419,2.11252,-0.109435,0.803783,0.119171,0.572499,0.0595143,0.217759,0.00403727,-0.00118998,0.0184942,0.0580971,0.0302239,0.139573,0.202414
1413393236155760384,-3.02442,2.94478,2.11364,-0.107796,0.80492,0.109014,0.573237,0.0347735,0.166112,0.0136107,-0.00116081,0.0185013,0.0581276,0.0291009,0.138582,0.200592
1413393236205760512,-3.02884,2.9532,2.11545,-0.0972891,0.807253,0.0997931,0.573514,0.0239916,0.134244,0.0466873,-0.000939048,0.0185775,0.0581897,0.0242093,0.11741,0.19334
1413393236255760384,-3.0297,2.95965,2.12888,-0.0864985,0.809649,0.0948969,0.572697,-0.00359318,0.118722,0.0852807,-0.000935925,0.0186,0.0582317,0.0228889,0.119527,0.191776
1413393236305760512,-3.03164,2.96593,2.12787,-0.0717735,0.811654,0.0895658,0.572752,0.00955792,0.0881127,0.0714417,-0.000849584,0.0186234,0.058289,0.0180037,0.111842,0.187858
1413393236355760384,-3.0321,2.97071,2.13223,-0.0591816,0.813256,0.0823163,0.573006,0.0126532,0.089631,0.10734,-0.000785633,0.0186613,0.0583152,0.0170519,0.107178,0.18877
1413393236405760512,-3.03197,2.97568,2.13697,-0.0506364,0.815228,0.0738855,0.572172,0.0158519,0.104286,0.107555,-0.000764631,0.0186835,0.0583632,0.0175103,0.103586,0.188273
1413393236455760384,-3.03153,2.9808,2.14192,-0.0436217,0.816501,0.0643461,0.572086,0.0121556,0.0992133,0.0961528,-0.000757646,0.0186967,0.0583913,0.0173807,0.0997446,0.188748
1413393236505760512,-3.03083,2.98601,2.14672,-0.0378728,0.819494,0.0538461,0.569295,0.0198514,0.0972964,0.0974577,-0.000733952,0.0187206,0.0584442,0.0177295,0.0968316,0.190498
1413393236555760384,-3.02968,2.99139,2.15153,-0.0317823,0.823177,0.0436903,0.565209,0.0323062,0.10445,0.105553,-0.000741194,0.0187124,0.0584777,0.0165656,0.0942144,0.190505
1413393236605760512,-3.02788,2.99692,2.15665,-0.0261388,0.828223,0.0333275,0.558796,0.0481482,0.111158,0.108023,-0.000744305,0.0187257,0.0585136,0.0144399,0.0921821,0.192482
1413393236655760384,-3.02511,3.00266,2.16123,-0.0213759,0.832432,0.0230557,0.553235,0.0762192,0.114719,0.057325,-0.000749691,0.0187393,0.0585305,0.0135887,0.0901444,0.193485
1413393236705760512,-3.021,3.00848,2.16173,-0.0183965,0.834527,0.0138239,0.550487,0.0858565,0.12079,0.00293631,-0.000750343,0.0187442,0.0585594,0.0123053,0.0889514,0.195092
1413393236755760384,-3.01663,3.01448,2.16162,-0.0176158,0.835105,0.00324583,0.549798,0.109669,0.115092,-0.0428689,-0.000744819,0.0187622,0.0585821,0.0105187,0.0882127,0.196106
1413393236805760512,-3.01145,3.02152,2.16089,-0.0185373,0.834051,-0.00811615,0.551316,0.130414,0.10854,-0.0874556,-0.000724148,0.0187755,0.0586057,0.00899662,0.0843008,0.197794
1413393236855760384,-3.00302,3.0246,2.15498,-0.0178264,0.832398,-0.0159154,0.553663,0.161906,0.0945637,-0.0782877,-0.000745635,0.0187727,0.0586406,0.00791089,0.0863368,0.201785
1413393236905760512,-2.98241,3.03522,2.1427,-0.0233446,0.831373,-0.0156309,0.555004,0.184212,0.0746627,-0.00922036,-0.00132876,0.0186296,0.0586582,0.0120541,0.139984,0.225191
1413393236955760384,-2.97095,3.03755,2.14101,-0.0202611,0.828394,-0.0174477,0.559508,0.214209,0.0439041,0.0321096,-0.00140168,0.0186195,0.0586745,0.0101142,0.142478,0.235997
1413393237005760512,-2.95942,3.03989,2.14384,-0.014895,0.825498,-0.0175517,0.563935,0.232527,0.0293094,0.121439,-0.00140401,0.0186535,0.0586871,0.00743191,0.137242,0.24558
1413393237055760384,-2.9449,3.03944,2.11277,-0.0100238,0.823562,-0.0164079,0.5669,0.229402,0.00608157,0.189311,-0.00142816,0.0186556,0.0586958,0.00857286,0.13746,0.25403
1413393237105760512,-3.00318,3.06992,2.16907,0.0244745,0.812436,-0.0174997,0.582274,0.229109,0.00376314,0.268439,0.000154576,0.0197867,0.0598246,-0.076604,-0.250929,0.0319199
1413393237155760384,-2.9997,3.07476,2.1495,0.0337798,0.808489,-0.0115074,0.587429,0.234078,0.0134392,0.253737,0.000237919,0.01982,0.0600188,-0.0837196,-0.270059,-0.00700534
1413393237205760512,-2.98832,3.07529,2.15981,0.0414759,0.806532,-0.00603963,0.589703,0.232007,0.026542,0.208619,0.000246327,0.0198334,0.0600461,-0.0868674,-0.270776,-0.00947201
1413393237255760384,-2.97605,3.07652,2.16806,0.0467795,0.80521,-0.00203459,0.591138,0.240931,0.0311202,0.139291,0.000257314,0.0198404,0.0600824,-0.0870841,-0.269653,-0.00762116
1413393237305760512,-2.96396,3.07888,2.17395,0.0509335,0.805492,0.00140336,0.590412,0.230275,0.0612606,0.0829924,0.000272675,0.0198428,0.0601013,-0.0874317,-0.267787,-0.00685037
1413393237355760384,-2.95256,3.08265,2.1763,0.0533277,0.805872,0.00448965,0.589666,0.217841,0.0948226,0.0106425,0.000273157,0.0198501,0.0601364,-0.0898262,-0.267379,-0.00721636
1413393237405760512,-2.94171,3.08803,2.17475,0.0541001,0.805256,0.00605523,0.590423,0.210585,0.114821,-0.0592861,0.000277677,0.0198632,0.0601747,-0.0919012,-0.267808,-0.00669013
1413393237455760384,-2.93055,3.09428,2.1704,0.0510238,0.804955,0.00599001,0.591108,0.205073,0.15765,-0.0910089,0.000256576,0.0198559,0.0602064,-0.0908398,-0.266487,-0.00645207
1413393237505760512,-2.92002,3.10284,2.1659,0.0442401,0.80469,0.00354852,0.592034,0.204357,0.185403,-0.108637,0.000255665,0.0198551,0.060226,-0.0914046,-0.265168,-0.00608422
1413393237555760384,-2.91006,3.11247,2.16038,0.0352948,0.805132,-0.000622743,0.592044,0.192695,0.203227,-0.100712,0.000230514,0.0198787,0.0602661,-0.0938617,-0.267012,-0.00604241
1413393237605760512,-2.90045,3.12286,2.1557,0.0261109,0.804974,-0.00501517,0.592714,0.186199,0.209145,-0.0981097,0.000209552,0.019881,0.0602928,-0.0950353,-0.268219,-0.00567657
1413393237655760384,-2.89119,3.13313,2.15085,0.0170368,0.806436,-0.00949875,0.591,0.179364,0.202426,-0.0852767,0.000206906,0.019895,0.0603083,-0.0956936,-0.269117,-0.00499395
1413393237705760512,-2.88208,3.14298,2.14644,0.00966356,0.807089,-0.0128111,0.590212,0.176119,0.186501,-0.0936847,0.000184409,0.0198955,0.0603337,-0.0967339,-0.268808,-0.00529535
1413393237755760384,-2.87311,3.15164,2.14248,0.00458979,0.808196,-0.0144097,0.58872,0.167719,0.16441,-0.0811094,0.000181727,0.0199078,0.0603561,-0.0957922,-0.265987,-0.0050543
1413393237805760512,-2.86445,3.15904,2.13838,0.0014707,0.809171,-0.0149743,0.58738,0.173296,0.138107,-0.0553485,0.000183023,0.0199006,0.0603641,-0.0961192,-0.265604,-0.00617612
1413393237855760384,-2.85598,3.16529,2.13526,0.00150033,0.810792,-0.0135398,0.585176,0.179005,0.112316,-0.0620841,0.000171225,0.0199137,0.0604065,-0.0968255,-0.266618,-0.0030415
1413393237905760512,-2.84699,3.17011,2.13305,0.00336616,0.812862,-0.0110596,0.582342,0.175902,0.0865133,-0.0370472,0.000169445,0.0199075,0.0604358,-0.0986303,-0.265426,-0.00464315
1413393237955760384,-2.83825,3.17387,2.13088,0.00557608,0.814085,-0.00907067,0.580648,0.172623,0.0585005,-0.0471817,0.000172033,0.0199319,0.060462,-0.100507,-0.264856,-0.00743548
1413393238005760512,-2.82947,3.17637,2.12799,0.0128731,0.817184,-0.00381075,0.576221,0.177,0.0427433,-0.0494886,0.000172053,0.0199732,0.0605038,-0.102064,-0.264211,-0.00661976
1413393238055760384,-2.81994,3.17832,2.12564,0.0197376,0.819498,0.00123345,0.57274,0.198312,0.0440611,-0.0309796,0.000186793,0.0199731,0.0605393,-0.100932,-0.263515,-0.00698367
1413393238105760512,-2.81004,3.18024,2.12391,0.0248945,0.82172,0.00449209,0.56933,0.216871,0.0402829,-0.0258153,0.000175222,0.0199901,0.0605413,-0.101407,-0.265473,-0.00672029
1413393238155760384,-2.79887,3.18214,2.12373,0.0300566,0.822194,0.00664275,0.568374,0.230288,0.0399942,0.00345819,0.000166228,0.0199688,0.0605666,-0.0975794,-0.265001,-0.0080233
1413393238205760512,-2.78694,3.18492,2.12427,0.0342218,0.822784,0.00792454,0.567268,0.258271,0.0645424,0.0158675,0.000186634,0.0199797,0.0605829,-0.0992887,-0.265817,-0.00596947
1413393238255760384,-2.77469,3.18902,2.12698,0.0376073,0.822905,0.00853133,0.566868,0.257928,0.0854931,0.0716259,0.000204333,0.0200151,0.0606366,-0.101083,-0.270123,-0.00702425
1413393238305760512,-2.76196,3.19429,2.13085,0.0409326,0.823158,0.00729602,0.566288,0.289778,0.101734,0.136473,0.000247528,0.0200475,0.0606907,-0.101851,-0.277339,-0.0134296
1413393238355760384,-2.74833,3.20173,2.13882,0.0424232,0.82338,0.00564234,0.565875,0.322416,0.138415,0.168972,0.000304104,0.0200712,0.0607407,-0.103827,-0.28481,-0.0215461
1413393238405760512,-2.73206,3.20997,2.14942,0.0431484,0.822659,0.00365561,0.566884,0.36374,0.161351,0.235781,0.000328082,0.0201216,0.0608185,-0.107981,-0.294408,-0.0328063
1413393238455760384,-2.71418,3.21981,2.16406,0.0408339,0.821171,-0.000295323,0.569219,0.382031,0.183537,0.263101,0.000360983,0.0201371,0.0609063,-0.111436,-0.301819,-0.044903
1413393238505760512,-2.69499,3.22859,2.17701,0.0349337,0.819992,-0.00657055,0.571271,0.398241,0.196423,0.231811,0.000376821,0.0201547,0.0609453,-0.112977,-0.305487,-0.0509722
1413393238555760384,-2.67529,3.23774,2.18661,0.0273843,0.817528,-0.0139961,0.575068,0.402703,0.200137,0.177551,0.000396093,0.020167,0.0609767,-0.112865,-0.308809,-0.0607322
1413393238605760512,-2.65465,3.24724,2.19378,0.018817,0.815229,-0.021501,0.578434,0.421236,0.185251,0.120026,0.000410758,0.0201543,0.0610048,-0.111834,-0.31009,-0.0634683
1413393238655760384,-2.63388,3.25684,2.19958,0.0107554,0.813737,-0.0287533,0.580423,0.432555,0.161889,0.0761204,0.000409385,0.0201492,0.0610072,-0.111472,-0.308037,-0.065747
1413393238705760512,-2.60967,3.2639,2.19981,0.00448998,0.812613,-0.0342174,0.581781,0.438034,0.134591,0.0101177,0.000392472,0.0201315,0.0610174,-0.10938,-0.302769,-0.0662386
1413393238755760384,-2.58734,3.26749,2.19952,-0.000404311,0.811707,-0.0384115,0.5828,0.442437,0.0946884,-0.0282177,0.00035808,0.0201122,0.0610304,-0.108877,-0.298803,-0.0614801
1413393238805760512,-2.56376,3.27048,2.19788,-0.00199655,0.811004,-0.0402612,0.58365,0.446093,0.0571541,-0.0399582,0.000311827,0.0201089,0.0610341,-0.107573,-0.291204,-0.0569618
1413393238855760384,-2.53809,3.27324,2.1967,-0.00161993,0.811075,-0.0387236,0.583657,0.444359,0.0102093,-0.0279298,0.000194067,0.0200561,0.0610094,-0.105527,-0.270713,-0.0488567
1413393238905760512,-2.50345,3.27018,2.20471,-0.00917342,0.813116,-0.0273536,0.581387,0.453547,-0.0189304,-0.0146888,-0.000658479,0.0197553,0.0609483,-0.0873621,-0.170089,0.000760546
1413393238955760384,-2.48131,3.2683,2.20521,-0.000794308,0.813399,-0.0219881,0.58129,0.444866,-0.0517326,0.00427622,-0.000654995,0.0197274,0.060946,-0.0820889,-0.168225,-0.00265868
1413393239005760512,-2.45841,3.26526,2.20632,0.00824268,0.813209,-0.0163535,0.581684,0.443671,-0.0751658,0.0241222,-0.000668761,0.0197281,0.0609834,-0.0815236,-0.166431,-0.00499717
1413393239055760384,-2.43588,3.26171,2.20712,0.0161356,0.813559,-0.0108469,0.581157,0.449979,-0.0586446,0.020426,-0.00068711,0.0196836,0.0609952,-0.0787291,-0.166707,-0.0077158
1413393239105760512,-2.41327,3.25832,2.20791,0.022711,0.813505,-0.00680591,0.581075,0.44858,-0.0729945,0.00942393,-0.000686117,0.0197093,0.0610238,-0.0810001,-0.165135,-0.0049893
1413393239155760384,-2.39067,3.2553,2.20879,0.0275241,0.81333,-0.00415063,0.581137,0.454982,-0.0539223,0.0304557,-0.000687067,0.0196808,0.0610441,-0.078446,-0.166008,-0.00578291
1413393239205760512,-2.36778,3.25313,2.20965,0.0314674,0.813754,-0.00119316,0.580356,0.463787,-0.0289686,0.0122088,-0.000684583,0.0196672,0.0610474,-0.0784541,-0.166284,-0.00413851
1413393239255760384,-2.34479,3.25167,2.21081,0.0334741,0.813343,-0.000666584,0.580821,0.462206,-0.0326317,0.0188547,-0.000683461,0.0196764,0.0610845,-0.0780257,-0.167786,-0.000268749
1413393239305760512,-2.32141,3.25089,2.21205,0.0360045,0.81358,0.000158951,0.580337,0.471167,-0.00247188,0.0261508,-0.000686814,0.0197119,0.0611264,-0.0731108,-0.168417,0.00142582
1413393239355760384,-2.29769,3.25135,2.21336,0.0369973,0.814268,0.000987995,0.579309,0.475413,0.0211497,0.0356955,-0.000697526,0.0197004,0.0611437,-0.0669061,-0.171132,0.00272498
1413393239405760512,-2.27357,3.2526,2.21533,0.0376089,0.814543,0.000832052,0.578882,0.481378,0.0329755,0.0395351,-0.000718818,0.0196938,0.0611407,-0.0590243,-0.171602,0.00529891
1413393239455760384,-2.24925,3.25518,2.21782,0.0370468,0.81519,0.000109744,0.578008,0.48461,0.066,0.0445932,-0.000718065,0.0197007,0.0611943,-0.0553547,-0.171325,0.00166236
1413393239505760512,-2.22462,3.25885,2.22142,0.0392332,0.815242,0.00184498,0.577787,0.493254,0.0820923,0.0758924,-0.000718315,0.0196723,0.0611953,-0.0520498,-0.170023,0.00314995
1413393239555760384,-2.19993,3.26378,2.22518,0.0370995,0.815647,1.68448e-05,0.57736,0.495435,0.106453,0.0764965,-0.000731937,0.0196687,0.0612306,-0.054155,-0.170294,-0.00082104
1413393239605760512,-2.17505,3.27,2.22954,0.0329762,0.816193,-0.00209635,0.576834,0.502681,0.141809,0.0859388,-0.000728128,0.0196684,0.0612565,-0.0558627,-0.168753,-0.00137493
1413393239655760384,-2.14983,3.27722,2.23434,0.0257957,0.816254,-0.00686701,0.577077,0.510539,0.146055,0.107333,-0.000729203,0.0197042,0.0612917,-0.0599414,-0.166361,-0.00530737
1413393239705760512,-2.12412,3.28458,2.23925,0.0152005,0.816348,-0.0142493,0.577185,0.518055,0.14162,0.105644,-0.000731639,0.0197145,0.0613034,-0.0625292,-0.166738,-0.00571043
1413393239755760384,-2.09796,3.29159,2.24455,0.0065675,0.816137,-0.0196948,0.577485,0.528808,0.136899,0.0974247,-0.000734335,0.0197151,0.0613342,-0.0644146,-0.166558,-0.0057635
1413393239805760512,-2.07138,3.29756,2.24963,0.00113342,0.816153,-0.0233245,0.577364,0.537738,0.0997667,0.10097,-0.000733292,0.0197364,0.0613532,-0.067649,-0.167112,-0.00729856
1413393239855760384,-2.04447,3.30209,2.25404,-0.00155823,0.817128,-0.0254993,0.57589,0.54058,0.0793608,0.0743643,-0.000726879,0.0197495,0.0613703,-0.0683345,-0.164511,-0.00615177
1413393239905760512,-2.01715,3.30545,2.25814,0.000406251,0.817756,-0.0240635,0.575062,0.550338,0.0548591,0.0866796,-0.00073009,0.0197808,0.0614078,-0.0696741,-0.164201,-0.00744027
1413393239955760384,-1.98932,3.3075,2.26203,0.00195744,0.817778,-0.0230631,0.575068,0.563067,0.0285507,0.0937148,-0.000723194,0.0197819,0.0614333,-0.0705522,-0.163456,-0.00767988
1413393240005760512,-1.96084,3.30829,2.26632,0.00604428,0.816891,-0.0202666,0.576405,0.573246,0.00782531,0.0888505,-0.000726685,0.0197647,0.0614731,-0.0703439,-0.161495,-0.00688965
1413393240055760384,-1.93211,3.30831,2.27101,0.0109996,0.816041,-0.0164913,0.577654,0.574116,-0.00771684,0.0988716,-0.000737913,0.0197673,0.0615047,-0.0725766,-0.160595,-0.00491667
1413393240105760512,-1.90326,3.30767,2.27634,0.0181383,0.814362,-0.0113404,0.579963,0.575282,-0.0216687,0.110729,-0.000735661,0.019783,0.0615176,-0.0725164,-0.159026,-0.00269064
1413393240155760384,-1.87442,3.30699,2.28125,0.024207,0.81309,-0.00649119,0.581599,0.576879,-0.00819453,0.0793745,-0.00074125,0.0197911,0.0615497,-0.0716019,-0.158556,-0.00407351
1413393240205760512,-1.84592,3.30684,2.28442,0.0282691,0.811924,-0.00279102,0.583072,0.564685,0.00385276,0.0374537,-0.000759791,0.0197795,0.061561,-0.0719466,-0.158486,0.000282184
1413393240255760384,-1.81752,3.30723,2.28516,0.0311978,0.812134,-0.000186047,0.582637,0.563688,0.01489,-0.0145898,-0.000749039,0.0197891,0.0615761,-0.0717985,-0.155475,-0.00227173
1413393240305760512,-1.78941,3.30844,2.28278,0.0301456,0.812158,-0.000661802,0.582658,0.565284,0.0356244,-0.0694938,-0.000754968,0.0197957,0.0615917,-0.0715323,-0.154999,-0.00256013
1413393240355760384,-1.76095,3.31032,2.278,0.0282368,0.812052,-0.00155761,0.5829,0.568778,0.0448883,-0.121714,-0.000759648,0.0198192,0.0616028,-0.0708319,-0.153286,-0.00441178
1413393240405760512,-1.73207,3.31268,2.27061,0.0235212,0.811902,-0.00485062,0.583299,0.583502,0.0525646,-0.162892,-0.000755752,0.0198235,0.0616476,-0.0698759,-0.152421,-0.00269256
1413393240455760384,-1.70301,3.31529,2.2616,0.0192956,0.811232,-0.00749143,0.584358,0.578595,0.0502546,-0.206881,-0.000760187,0.0198099,0.0616563,-0.068525,-0.15096,-0.00358877
1413393240505760512,-1.67456,3.31782,2.25057,0.0131908,0.810977,-0.0118073,0.58481,0.55787,0.0490763,-0.221477,-0.00076154,0.0198224,0.0616899,-0.0669968,-0.148639,-0.00394805
1413393240555760384,-1.64708,3.32012,2.24039,0.00879466,0.810307,-0.0151064,0.585746,0.539956,0.0435353,-0.186369,-0.00075325,0.0198177,0.0617034,-0.0669307,-0.14743,-0.00320133
1413393240605760512,-1.62054,3.32201,2.23289,0.00525563,0.809844,-0.0180238,0.586345,0.513567,0.0312399,-0.139802,-0.000767176,0.0198183,0.0617361,-0.0670917,-0.147945,-0.0036404
1413393240655760384,-1.59437,3.32311,2.22781,0.00430362,0.809701,-0.0195681,0.586501,0.539032,0.0127889,-0.0782617,-0.00076495,0.0198328,0.0617656,-0.0690587,-0.148551,-0.00257919
1413393240705760512,-1.56681,3.32335,2.22757,0.00538838,0.80987,-0.020225,0.586236,0.563439,-0.00683142,0.0655051,-0.00076351,0.0198346,0.0617862,-0.0709949,-0.14766,-0.00189822
1413393240755760384,-1.53871,3.32283,2.23316,0.00943414,0.809046,-0.0190822,0.58736,0.555704,-0.0148465,0.124192,-0.000762407,0.0198359,0.0618119,-0.0720374,-0.1459,-0.00247236
1413393240805760512,-1.51101,3.32182,2.2401,0.0137043,0.807561,-0.0177755,0.589357,0.554983,-0.0258361,0.150289,-0.000757965,0.019838,0.0618397,-0.0721739,-0.145657,-0.00301583
1413393240855760384,-1.4837,3.3207,2.24681,0.0191446,0.806009,-0.0153754,0.591393,0.543965,-0.0216093,0.122403,-0.000755238,0.0198639,0.0618462,-0.0761958,-0.144658,-0.00485673
1413393240905760512,-1.45673,3.31936,2.25157,0.0225364,0.803357,-0.0144993,0.594895,0.526571,-0.0316681,0.067241,-0.00076745,0.019893,0.0618703,-0.0781954,-0.143066,-0.00646454
1413393240955760384,-1.43128,3.31813,2.25307,0.0255787,0.800571,-0.0145006,0.598516,0.492329,-0.0258384,-0.000945055,-0.000774531,0.0198952,0.0618836,-0.07865,-0.143879,-0.00970049
1413393241005760512,-1.40689,3.31716,2.25147,0.0279055,0.797861,-0.014355,0.602024,0.485608,-0.0174839,-0.0538667,-0.000782188,0.0199136,0.0619042,-0.0793322,-0.142924,-0.0124057
1413393241055760384,-1.38276,3.31631,2.24743,0.0281599,0.795607,-0.0158712,0.60495,0.473765,-0.0206893,-0.106232,-0.000791677,0.0199221,0.061926,-0.0799156,-0.141521,-0.0166076
1413393241105760512,-1.35947,3.31566,2.24006,0.025567,0.794896,-0.0192384,0.605902,0.455248,-0.0108561,-0.175246,-0.000778323,0.0199244,0.0619616,-0.0810354,-0.139605,-0.0180497
1413393241155760384,-1.33744,3.315,2.23015,0.0209839,0.794831,-0.0244064,0.605977,0.425844,-0.0144525,-0.230973,-0.000781922,0.0199186,0.0619982,-0.0817904,-0.138676,-0.0204422
1413393241205760512,-1.31652,3.3142,2.21791,0.0162144,0.795499,-0.0290976,0.605038,0.410035,-0.0169687,-0.253582,-0.000783509,0.0199099,0.0620145,-0.0837184,-0.136661,-0.0198275
1413393241255760384,-1.29667,3.31306,2.20531,0.0121775,0.796708,-0.0336749,0.603303,0.385836,-0.0292496,-0.257195,-0.000786865,0.0199187,0.0620351,-0.0853017,-0.135944,-0.0195716
1413393241305760512,-1.27785,3.31129,2.19291,0.00928719,0.799063,-0.0373991,0.600011,0.368757,-0.0477934,-0.238032,-0.000787944,0.0198984,0.062054,-0.08588,-0.133004,-0.020079
1413393241355760384,-1.25985,3.30846,2.18063,0.00958654,0.804332,-0.0391106,0.592815,0.349568,-0.0617835,-0.231109,-0.000787219,0.0199091,0.0620847,-0.0865342,-0.131695,-0.0212214
1413393241405760512,-1.24244,3.30483,2.16961,0.00954285,0.807939,-0.040757,0.587778,0.341302,-0.0855953,-0.217073,-0.00078321,0.0199261,0.0621314,-0.0862383,-0.130488,-0.0221732
1413393241455760384,-1.22542,3.30007,2.15975,0.0125688,0.810504,-0.0403751,0.584205,0.337049,-0.108357,-0.181008,-0.000785599,0.0199415,0.0621581,-0.0854806,-0.129193,-0.0225975
1413393241505760512,-1.20857,3.29457,2.15135,0.0172914,0.811689,-0.037908,0.582601,0.335633,-0.111888,-0.146366,-0.000779976,0.0199362,0.0621743,-0.085293,-0.128297,-0.0247548
1413393241555760384,-1.19158,3.28842,2.14396,0.022407,0.811104,-0.0352807,0.583407,0.342176,-0.132996,-0.14212,-0.000805578,0.0199516,0.0621882,-0.0864039,-0.128459,-0.0254947
1413393241605760512,-1.17433,3.28187,2.1372,0.0282121,0.809378,-0.0318837,0.585743,0.346691,-0.130578,-0.14234,-0.000809414,0.019958,0.0622144,-0.0868889,-0.127839,-0.0254483
1413393241655760384,-1.15706,3.27555,2.13039,0.0323572,0.808123,-0.0288381,0.587417,0.344348,-0.118958,-0.132376,-0.000815365,0.0199582,0.0622268,-0.0874889,-0.127953,-0.0248209
1413393241705760512,-1.13973,3.26946,2.12382,0.0368274,0.806679,-0.0256832,0.589283,0.34406,-0.119341,-0.13707,-0.000859042,0.0199636,0.0622348,-0.0891139,-0.130212,-0.0255269
1413393241755760384,-1.12244,3.26378,2.11706,0.0389391,0.806407,-0.0244201,0.589572,0.34372,-0.109252,-0.129372,-0.000862858,0.0199728,0.062239,-0.0900366,-0.133412,-0.0271234
1413393241805760512,-1.10523,3.25884,2.11047,0.0409614,0.807179,-0.0224592,0.588456,0.339936,-0.0868075,-0.133116,-0.000866383,0.0199798,0.0622554,-0.0909724,-0.134916,-0.0285995
1413393241855760384,-1.08812,3.25472,2.10418,0.0420862,0.807799,-0.0207752,0.587587,0.341348,-0.0781461,-0.125184,-0.000888735,0.0199958,0.0622705,-0.0917518,-0.134856,-0.0287657
1413393241905760512,-1.07116,3.25151,2.09896,0.0425287,0.806835,-0.0200816,0.588902,0.335897,-0.056676,-0.0841581,-0.000886571,0.0200031,0.0623045,-0.0914346,-0.134395,-0.029558
1413393241955760384,-1.05471,3.24938,2.0945,0.0428217,0.804572,-0.0179577,0.592037,0.326481,-0.028108,-0.0843035,-0.000885274,0.0200183,0.062335,-0.0930327,-0.130388,-0.0293719
1413393242005760512,-1.03872,3.24825,2.09003,0.0421489,0.80284,-0.01704,0.594458,0.32012,-0.0201324,-0.0835396,-0.000876312,0.0200162,0.0623721,-0.0920586,-0.12503,-0.0318943
1413393242055760384,-1.02318,3.24809,2.0865,0.0417364,0.799985,-0.0155233,0.598365,0.306171,0.0141456,-0.0610969,-0.000870522,0.0200174,0.0624006,-0.0905433,-0.122224,-0.0328132
1413393242105760512,-1.0084,3.2491,2.08342,0.0412288,0.797537,-0.0136557,0.601704,0.288382,0.0313622,-0.0526783,-0.000875379,0.0200199,0.0624152,-0.0904988,-0.119526,-0.0330429
1413393242155760384,-0.994733,3.25104,2.08105,0.0385503,0.793914,-0.0141817,0.606641,0.266053,0.041473,-0.0438275,-0.000862589,0.0200173,0.0624523,-0.091001,-0.114773,-0.0339545
1413393242205760512,-0.982293,3.25394,2.07933,0.0349114,0.789939,-0.0149659,0.612008,0.234294,0.0734401,-0.0317395,-0.0008699,0.0200365,0.0624663,-0.0908826,-0.113656,-0.0350765
1413393242255760384,-0.971375,3.25741,2.07793,0.0328462,0.787355,-0.0148217,0.615447,0.203572,0.0719545,-0.0260088,-0.000864605,0.0200331,0.0625003,-0.0909171,-0.111365,-0.036241
1413393242305760512,-0.961965,3.26127,2.07675,0.0302887,0.786295,-0.0160825,0.616899,0.169575,0.0773753,-0.0226459,-0.000859853,0.0200326,0.0625149,-0.0897978,-0.111614,-0.0369101
1413393242355760384,-0.954203,3.26569,2.07516,0.0261635,0.78747,-0.0179726,0.615535,0.144532,0.0970239,-0.0359032,-0.000861356,0.0200398,0.062541,-0.0898939,-0.108135,-0.0353335
1413393242405760512,-0.947924,3.27047,2.07379,0.0204243,0.790768,-0.0212052,0.611408,0.110959,0.0973826,-0.0298501,-0.000863594,0.0200439,0.0625513,-0.0905957,-0.107186,-0.0355468
1413393242455760384,-0.943021,3.27536,2.0723,0.0139211,0.795931,-0.0253129,0.604698,0.0877027,0.0964511,-0.0256833,-0.000860606,0.0200335,0.0625897,-0.0923916,-0.105316,-0.0348842
1413393242505760512,-0.939224,3.27988,2.07095,0.00674645,0.802047,-0.0300154,0.596468,0.0671879,0.0878105,-0.0330976,-0.000863907,0.0200385,0.0626152,-0.0925821,-0.103879,-0.0349964
1413393242555760384,-0.935982,3.28358,2.07003,0.00147214,0.807479,-0.0333066,0.588954,0.0619571,0.0640183,-0.000700211,-0.000865027,0.0200476,0.0626457,-0.0926044,-0.103524,-0.0325923
1413393242605760512,-0.933014,3.28617,2.07014,-0.00232962,0.811668,-0.0358367,0.583014,0.0594572,0.0344583,0.00991559,-0.000865798,0.0200662,0.0626659,-0.0918695,-0.102921,-0.0325493
1413393242655760384,-0.929699,3.28743,2.0711,-0.00429214,0.814375,-0.0368736,0.579151,0.0712674,0.0149002,0.0333762,-0.000871197,0.0200345,0.0626884,-0.0915631,-0.100066,-0.0301099
1413393242705760512,-0.925892,3.2871,2.07302,-0.00630582,0.815249,-0.0384804,0.577797,0.0846569,-0.0238423,0.0370656,-0.000873764,0.0200576,0.0627104,-0.0912177,-0.0987727,-0.0295387
1413393242755760384,-0.921475,3.2854,2.07555,-0.0101035,0.814956,-0.040006,0.578052,0.0939687,-0.0442828,0.0667226,-0.000881345,0.0200615,0.0627355,-0.0909086,-0.0978471,-0.0298482
1413393242805760512,-0.916409,3.28203,2.07878,-0.0114199,0.814249,-0.038576,0.579121,0.108183,-0.0835444,0.0708828,-0.000878066,0.0200705,0.0627619,-0.0908437,-0.0966591,-0.0288952
1413393242855760384,-0.910624,3.27712,2.08269,-0.0109003,0.81369,-0.0339474,0.580205,0.118672,-0.113975,0.0922381,-0.000889002,0.0200645,0.0627902,-0.0898027,-0.0966041,-0.0271049
1413393242905760512,-0.904194,3.27085,2.08748,-0.00552338,0.813305,-0.0236572,0.58133,0.130342,-0.130581,0.0841896,-0.00089509,0.0200711,0.06281,-0.0888723,-0.0963864,-0.0258263
1413393242955760384,-0.897496,3.26348,2.09198,-0.00179522,0.81438,-0.0138224,0.580165,0.132983,-0.162737,0.104638,-0.000891144,0.0200714,0.0628267,-0.088005,-0.0958156,-0.0234896
1413393243005760512,-0.890518,3.25551,2.09716,0.000175049,0.816041,-0.00336356,0.577984,0.145341,-0.157456,0.108501,-0.000913248,0.020075,0.062841,-0.0857663,-0.094337,-0.0212394
1413393243055760384,-0.882915,3.24754,2.103,1.74368e-05,0.817313,0.00826166,0.576135,0.158427,-0.160147,0.0990058,-0.000904667,0.0200746,0.0628742,-0.0846213,-0.094813,-0.0229499
1413393243105760512,-0.874546,3.23934,2.10851,-0.00213306,0.81877,0.0191042,0.5738,0.175977,-0.165976,0.11425,-0.000905236,0.0200843,0.0629055,-0.0848445,-0.0962462,-0.0231987
1413393243155760384,-0.865348,3.23143,2.11464,-0.00761701,0.818812,0.0299528,0.573229,0.192521,-0.138529,0.13299,-0.000918366,0.0201075,0.0629228,-0.0838411,-0.101822,-0.0215058
1413393243205760512,-0.855372,3.2244,2.12175,-0.0140533,0.816255,0.0410418,0.576061,0.206823,-0.129323,0.156274,-0.000922246,0.0201169,0.062951,-0.0826983,-0.105282,-0.020733
1413393243255760384,-0.844895,3.21767,2.12973,-0.0196965,0.811424,0.0503483,0.581953,0.214414,-0.140353,0.153696,-0.000927405,0.0201128,0.0629742,-0.0814822,-0.105523,-0.019768
1413393243305760512,-0.834236,3.21134,2.13637,-0.0248094,0.806307,0.0591811,0.588006,0.213029,-0.110566,0.101426,-0.000933498,0.0201235,0.062989,-0.084673,-0.107058,-0.020151
1413393243355760384,-0.823607,3.20537,2.13978,-0.0304587,0.802383,0.065828,0.592386,0.21129,-0.121833,0.0490935,-0.000940933,0.0201361,0.0630136,-0.0899653,-0.108389,-0.0200272
1413393243405760512,-0.813585,3.19952,2.1412,-0.0345539,0.798487,0.0711317,0.596795,0.194238,-0.117568,0.000401011,-0.000929597,0.020136,0.06305,-0.0950754,-0.104366,-0.0199715
1413393243455760384,-0.804441,3.19418,2.14005,-0.0387291,0.796019,0.0760014,0.599231,0.176562,-0.0994978,-0.0374145,-0.000923463,0.0201359,0.0630717,-0.0965509,-0.101977,-0.019503
1413393243505760512,-0.79602,3.18882,2.13619,-0.0424958,0.793933,0.0794865,0.601287,0.15917,-0.100727,-0.101151,-0.000918686,0.0201182,0.0631012,-0.0953461,-0.0923404,-0.0158205
1413393243555760384,-0.788365,3.18376,2.1294,-0.0459223,0.79284,0.0823148,0.602097,0.138293,-0.0998641,-0.142364,-0.000912944,0.020117,0.063124,-0.0952574,-0.087822,-0.0130014
1413393243605760512,-0.781858,3.17885,2.12154,-0.0480712,0.792513,0.0849343,0.601996,0.120729,-0.0968272,-0.148366,-0.00091715,0.0201056,0.0631392,-0.094754,-0.0856849,-0.011228
1413393243655760384,-0.776446,3.17411,2.11345,-0.0494754,0.792749,0.0872449,0.60124,0.0959305,-0.0916309,-0.156369,-0.000918562,0.0201092,0.0631613,-0.0940614,-0.082193,-0.00994606
1413393243705760512,-0.772349,3.16985,2.1061,-0.0497957,0.793887,0.0897684,0.599338,0.0731975,-0.0791903,-0.123307,-0.000919552,0.0201211,0.0631724,-0.0937247,-0.0828853,-0.0101817
1413393243755760384,-0.769432,3.16589,2.09977,-0.050319,0.795398,0.0912566,0.597062,0.0466722,-0.0790471,-0.11013,-0.0009196,0.0201235,0.0632091,-0.093038,-0.0813796,-0.0100277
1413393243805760512,-0.76759,3.16223,2.09506,-0.0497965,0.796826,0.0929049,0.594944,0.0217242,-0.072776,-0.0791099,-0.00091662,0.0201187,0.0632334,-0.0921786,-0.0816401,-0.0108395
1413393243855760384,-0.766924,3.15913,2.0913,-0.0513172,0.797446,0.0931424,0.593945,0.00547425,-0.0607523,-0.0686683,-0.000918835,0.0201084,0.0632612,-0.0913795,-0.0794256,-0.00996554
1413393243905760512,-0.767073,3.15615,2.08845,-0.0509571,0.797729,0.0940672,0.59345,-0.00936298,-0.0599453,-0.0345115,-0.000924182,0.0200975,0.0632811,-0.0913987,-0.079265,-0.00870488
1413393243955760384,-0.767902,3.1536,2.0866,-0.0510974,0.797682,0.0946386,0.593411,-0.0254847,-0.0512312,-0.0246393,-0.000922307,0.0200971,0.0632976,-0.0921815,-0.0758444,-0.00759319
1413393244005760512,-0.769511,3.15138,2.08542,-0.0510035,0.797997,0.0951581,0.592912,-0.0360744,-0.0420678,-0.0197893,-0.000928727,0.0201072,0.0633258,-0.0919487,-0.0764749,-0.00670359
1413393244055760384,-0.771661,3.14947,2.08518,-0.0497559,0.797657,0.0958817,0.593359,-0.0481835,-0.0326861,0.000211942,-0.000931081,0.020105,0.0633541,-0.0912569,-0.0774475,-0.00559935
1413393244105760512,-0.774577,3.14807,2.08538,-0.04879,0.797916,0.0965338,0.592985,-0.0654843,-0.0201449,0.022245,-0.000928526,0.0201042,0.0633772,-0.0913563,-0.080211,-0.00347143
1413393244155760384,-0.778326,3.14732,2.0863,-0.0481983,0.79809,0.0979759,0.592562,-0.0860555,-0.0070424,0.00364918,-0.000932797,0.0201462,0.0633941,-0.0923291,-0.0857857,-0.00427903
1413393244205760512,-0.783418,3.14693,2.08677,-0.0500193,0.797838,0.100035,0.592407,-0.0983168,0.0200409,0.00654707,-0.000925157,0.0201416,0.0634141,-0.0913942,-0.0869176,-0.00418675
1413393244255760384,-0.788459,3.14863,2.08709,-0.0525749,0.797874,0.104596,0.591349,-0.113669,0.0332902,0.0109292,-0.00092831,0.0201206,0.063446,-0.0911785,-0.0809521,-0.00171898
1413393244305760512,-0.793923,3.15186,2.08751,-0.055868,0.797884,0.110623,0.589935,-0.127847,0.0518917,0.0229918,-0.000956062,0.0201161,0.0634624,-0.0907009,-0.076523,-0.000966569
1413393244355760384,-0.800439,3.15564,2.08809,-0.060622,0.797646,0.117443,0.588467,-0.136192,0.0777771,0.00812026,-0.000965796,0.0201047,0.0634857,-0.0898833,-0.0751636,-0.00223135
1413393244405760512,-0.807311,3.15946,2.08794,-0.0655032,0.796169,0.122866,0.588837,-0.137063,0.0684614,-0.0293226,-0.000960869,0.0201106,0.0635127,-0.090786,-0.0773613,-0.00511237
1413393244455760384,-0.814914,3.16329,2.08605,-0.0711847,0.794283,0.126806,0.589888,-0.154044,0.0762019,-0.0708516,-0.000959102,0.0201011,0.0635432,-0.0909827,-0.0783983,-0.00793052
1413393244505760512,-0.823293,3.16711,2.08115,-0.0768442,0.793165,0.130148,0.589954,-0.164094,0.0783859,-0.131316,-0.00096038,0.0201175,0.0635647,-0.0931813,-0.0815074,-0.00787816
1413393244555760384,-0.832167,3.17007,2.07283,-0.081853,0.791881,0.132288,0.590529,-0.171667,0.0591891,-0.193237,-0.000959217,0.0201255,0.0635817,-0.0942626,-0.0851859,-0.00673869
1413393244605760512,-0.841088,3.17255,2.06226,-0.0860912,0.791922,0.13442,0.589389,-0.173237,0.0680454,-0.220853,-0.000939565,0.0201269,0.0636151,-0.0932764,-0.0893764,-0.00804131
1413393244655760384,-0.850075,3.17519,2.05192,-0.0899595,0.792119,0.136082,0.588163,-0.169668,0.0693398,-0.186371,-0.000933382,0.0201394,0.0636339,-0.0932938,-0.0916571,-0.00657361
1413393244705760512,-0.859637,3.17782,2.04539,-0.0927405,0.79132,0.137783,0.588412,-0.211012,0.0562941,-0.115235,-0.000918054,0.0201405,0.0636748,-0.0926138,-0.0924451,-0.0074813
1413393244755760384,-0.871351,3.17946,2.0393,-0.097325,0.792148,0.137004,0.586736,-0.230104,0.048238,-0.104238,-0.000888701,0.0201433,0.0637136,-0.0902328,-0.0958539,-0.00782355
1413393244805760512,-0.883575,3.18127,2.03618,-0.102208,0.792204,0.135454,0.58619,-0.236172,0.045746,-0.037349,-0.000879142,0.0201605,0.0637469,-0.0886114,-0.0989925,-0.00613779
1413393244855760384,-0.896494,3.1828,2.03665,-0.105387,0.793047,0.134494,0.584706,-0.257894,0.0383201,0.051353,-0.000862307,0.0201735,0.0637844,-0.0875229,-0.103503,-0.00495115
1413393244905760512,-0.909191,3.18395,2.04187,-0.107488,0.79312,0.133158,0.584531,-0.232885,0.0253798,0.140974,-0.000838748,0.020186,0.0638043,-0.085457,-0.108533,-0.00346893
1413393244955760384,-0.921709,3.18392,2.05069,-0.107406,0.79299,0.132969,0.584765,-0.251661,0.00870399,0.208113,-0.000819841,0.0201983,0.0638265,-0.0833419,-0.112803,0.000267979
1413393245005760512,-0.935158,3.1822,2.05958,-0.104127,0.794366,0.134533,0.58313,-0.25693,-0.011958,0.192822,-0.000796493,0.0202201,0.0638355,-0.0805933,-0.118199,0.00148894
1413393245055760384,-0.948612,3.17982,2.06792,-0.101279,0.796705,0.134875,0.580355,-0.262806,-0.0231483,0.157892,-0.00075848,0.0202579,0.0638568,-0.078332,-0.122188,0.00349785
1413393245105760512,-0.962005,3.17715,2.07429,-0.0978416,0.799393,0.136106,0.576952,-0.259771,-0.0279132,0.102764,-0.000736735,0.0202808,0.0638835,-0.0754129,-0.128958,0.00773749
1413393245155760384,-0.975089,3.17457,2.0787,-0.0954436,0.802563,0.136057,0.57295,-0.247853,-0.0404807,0.0544164,-0.000712658,0.0202991,0.0638985,-0.072948,-0.134482,0.00932827
1413393245205760512,-0.987922,3.17191,2.08115,-0.0927175,0.805695,0.136391,0.568909,-0.240607,-0.047473,0.0114076,-0.000682233,0.0203342,0.0639222,-0.0709426,-0.140229,0.0115935
1413393245255760384,-1.00032,3.16909,2.08166,-0.0895928,0.807078,0.137447,0.567192,-0.232679,-0.0560489,-0.0425315,-0.000669682,0.0203711,0.0639392,-0.0692827,-0.153979,0.0137827
1413393245305760512,-1.01158,3.16589,2.0782,-0.0869847,0.807913,0.138249,0.566213,-0.216386,-0.0504849,-0.098805,-0.000651446,0.0203852,0.0639517,-0.066737,-0.160126,0.0188429
1413393245355760384,-1.02197,3.16259,2.07164,-0.0842899,0.807396,0.139575,0.567032,-0.204979,-0.0430198,-0.139073,-0.000649697,0.0204009,0.063971,-0.0635881,-0.163728,0.0221517
1413393245405760512,-1.03226,3.15985,2.06339,-0.0822468,0.806497,0.140308,0.568429,-0.182347,-0.0474074,-0.170351,-0.000650767,0.020393,0.0639882,-0.060576,-0.164463,0.0233124
1413393245455760384,-1.04155,3.15746,2.05383,-0.079849,0.805013,0.141412,0.570597,-0.181195,-0.0437319,-0.211213,-0.000645402,0.0204008,0.0640102,-0.0599576,-0.162978,0.0276111
1413393245505760512,-1.05056,3.155,2.04219,-0.077863,0.803547,0.142509,0.572661,-0.174102,-0.0345174,-0.236285,-0.000644503,0.0204154,0.0640292,-0.0574567,-0.164661,0.0278958
1413393245555760384,-1.05875,3.15284,2.02986,-0.0758381,0.801694,0.143342,0.575315,-0.165855,-0.0348178,-0.230728,-0.000649276,0.0204299,0.0640448,-0.0547192,-0.165462,0.0313089
1413393245605760512,-1.06463,3.15002,2.01527,-0.0744046,0.80109,0.143796,0.576231,-0.169031,-0.0204382,-0.22878,-0.000694655,0.020491,0.0639761,-0.0417107,-0.153998,0.0688863
1413393245655760384,-1.06496,3.1516,2.0178,-0.0740808,0.801787,0.143703,0.575326,-0.179457,-0.00525842,-0.219673,-0.000779633,0.0205319,0.0638116,-0.0194848,-0.113997,0.137917
1413393245705760512,-1.08614,3.1619,2.02598,-0.0696395,0.794143,0.144685,0.586134,-0.173454,0.00648564,-0.203474,-0.000587988,0.0202842,0.0643134,-0.0829921,-0.173414,-0.06237
