#timestamp, p_RS_R_x [m], p_RS_R_y [m], p_RS_R_z [m], q_RS_w [], q_RS_x [], q_RS_y [], q_RS_z [], v_RS_R_x [m s^-1], v_RS_R_y [m s^-1], v_RS_R_z [m s^-1], b_w_RS_S_x [rad s^-1], b_w_RS_S_y [rad s^-1], b_w_RS_S_z [rad s^-1], b_a_RS_S_x [m s^-2], b_a_RS_S_y [m s^-2], b_a_RS_S_z [m s^-2]
1413393212255760384,-1.07611,0.492468,1.32992,0.602496,-0.00169146,-0.798114,0.00331378,0.00236812,0.0114139,0.00597965,-0.000399634,0.00472967,0.016405,-0.00137968,2.75614e-05,0.0003809
1413393212305760512,-3.07533,1.27215,1.17389,0.602412,0.010277,-0.798023,0.0123635,0.00237692,0.00549443,0.00180541,-0.000397252,0.00479674,0.016663,-0.0020006,4.03135e-05,0.000586587
1413393212355760384,-2.06957,0.915039,3.22962,0.601463,0.0121545,-0.798704,0.0129012,-0.00414495,0.00343028,0.000273024,-0.000416546,0.00486735,0.0169333,-0.0013648,-0.00200917,0.00360228
1413393212405760512,-2.10497,0.881521,3.23158,0.600674,0.0283132,-0.798597,0.0251275,-0.00310265,0.00705299,-0.00159387,-0.000417675,0.00495287,0.0172314,-0.00181203,-0.00249721,0.00657687
1413393212455760384,-2.11673,0.914695,3.47115,0.600259,0.0270831,-0.798999,0.0235819,0.000942364,0.000601259,0.000382878,-0.000413456,0.00501606,0.0174846,-0.00198171,-0.00380751,0.00758207
1413393212505760512,-2.09334,0.910539,2.88141,0.600789,0.0192964,-0.798958,0.0186218,-0.00502721,-0.00638949,0.000872593,-0.000428337,0.00509844,0.0177227,-0.00287209,-0.00295011,0.00928306
1413393212555760384,-2.10432,0.909305,3.11191,0.600664,0.0280342,-0.798643,0.0242059,-0.00425245,-0.00984299,-0.00608934,-0.000445048,0.00516889,0.017993,-0.00284673,-0.00702859,0.00948364
1413393212605760512,-2.09733,0.907507,2.84832,0.601327,0.0178866,-0.798607,0.0176695,-0.00364227,-0.00155043,-0.00646444,-0.000460091,0.00524121,0.0182472,-0.00451941,-0.00365599,0.0086917
1413393212655760384,-2.09259,0.907499,2.83988,0.601497,0.0194327,-0.798408,0.0192044,-0.00324349,-0.00124617,-0.00493442,-0.00048728,0.00532938,0.0185259,-0.00604292,-0.0020234,0.00916949
1413393212705760512,-2.101,0.911794,2.92278,0.600655,0.0262975,-0.798707,0.0242594,0.00399394,-0.00090856,0.00386844,-0.000471993,0.00539048,0.0187514,-0.00418323,-0.00472971,0.0148575
1413393212755760384,-2.10288,0.915286,3.19556,0.600953,0.0275916,-0.798468,0.0233026,-0.000227208,0.00451006,0.00814174,-0.000477459,0.00546984,0.019004,-0.00555519,-0.0130645,0.0125855
1413393212805760512,-2.0689,0.88763,2.94537,0.602664,0.00983677,-0.797904,0.00703161,0.000194034,-0.00191398,0.00839471,-0.000502361,0.00555963,0.0191997,-0.00947648,-0.0336656,0.00181651
1413393212855760384,-2.06905,0.889241,2.94325,0.60214,0.0135392,-0.798229,0.00870504,0.00504574,0.00311809,0.00461436,-0.00050096,0.00560598,0.0194455,-0.00802372,-0.0416493,0.00617273
1413393212905760512,-2.07034,0.890542,2.94349,0.60194,0.0142163,-0.798361,0.00933344,-0.000805143,0.00327669,-0.000608855,-0.000522247,0.00568656,0.019705,-0.00837777,-0.0435933,0.00810596
1413393212955760384,-2.0707,0.890673,2.93849,0.601847,0.014253,-0.798427,0.00953115,-0.00538213,-0.00115755,-0.00521693,-0.000547253,0.00575012,0.0199393,-0.00848007,-0.0455815,0.0102809
1413393213005760512,-2.07171,0.891079,2.9419,0.601695,0.0147314,-0.798532,0.00965152,-0.00440387,-0.000138959,-0.00505282,-0.000512318,0.00581654,0.0201911,-0.00857664,-0.0472749,0.0117362
1413393213055760384,-2.07279,0.891203,2.95408,0.601429,0.0156947,-0.798698,0.0108584,-0.00414646,-0.00276967,-0.00435773,-0.000508401,0.00588547,0.020436,-0.00830938,-0.0464587,0.015934
1413393213105760512,-2.05821,0.875352,2.9274,0.601654,0.0108468,-0.798682,0.00163806,-0.00232869,-0.00370061,-0.00557634,-0.000512617,0.00597695,0.0206686,-0.00862424,-0.095111,0.0154248
1413393213155760384,-2.05745,0.874646,2.92815,0.601588,0.0108436,-0.798732,0.00148894,-0.00057799,0.000497561,-0.00151278,-0.000514753,0.00601553,0.0208813,-0.00804088,-0.0987914,0.017103
1413393213205760512,-2.05662,0.874601,2.92476,0.601569,0.0106477,-0.798749,0.0014314,0.00279463,0.00213698,0.000996269,-0.000538731,0.00609469,0.0211007,-0.00829049,-0.102661,0.0197148
1413393213255760384,-2.05627,0.874126,2.92799,0.60139,0.0107991,-0.798882,0.00115131,0.00295882,-9.59599e-05,0.00322644,-0.000508774,0.0061313,0.0213083,-0.00776034,-0.105537,0.019005
1413393213305760512,-2.05552,0.874456,2.9222,0.601298,0.0106627,-0.798953,0.00108446,-0.000894682,-0.00372925,-3.99135e-05,-0.000541123,0.00621529,0.0215569,-0.00947651,-0.109793,0.0240735
1413393213355760384,-2.05523,0.873505,2.92167,0.601354,0.0102223,-0.798917,0.00111693,0.00231051,0.00295435,0.000706742,-0.000544524,0.00631048,0.0218314,-0.0107389,-0.114666,0.0244191
1413393213405760512,-2.05609,0.87491,2.94447,0.601242,0.0104891,-0.798993,0.00292318,0.00591318,0.00663389,0.00800605,-0.000533329,0.00636272,0.0220669,-0.010424,-0.0967353,0.0246799
1413393213455760384,-2.05493,0.87569,2.95758,0.601393,0.00900914,-0.798891,0.0044144,0.00628901,0.00241893,0.00664568,-0.000544732,0.0064391,0.0222847,-0.0109891,-0.07516,0.0218091
1413393213505760512,-2.04828,0.870673,2.93564,0.601771,0.00768096,-0.79862,0.00437524,-0.00108383,0.0013076,0.00327816,-0.000542466,0.00651508,0.0224866,-0.0136572,-0.0635695,0.0149524
1413393213555760384,-2.08608,0.903842,2.99674,0.599353,0.0180707,-0.800103,0.016911,-0.00351522,-5.55622e-05,0.00430328,-0.000539939,0.00656242,0.022717,-0.00332686,-0.0157529,0.0509975
1413393213605760512,-2.08307,0.900557,2.99542,0.599724,0.0165473,-0.799887,0.0154231,0.000375708,0.00258086,0.00174372,-0.000554912,0.00664682,0.022984,-0.00568159,-0.0219447,0.0478039
1413393213655760384,-2.08177,0.899336,2.99746,0.599996,0.0158331,-0.799713,0.0146255,0.00192278,0.00170007,-0.000218783,-0.000559514,0.00669793,0.0231436,-0.00575405,-0.0217799,0.0423013
1413393213705760512,-2.08385,0.900646,3.00103,0.599748,0.0166791,-0.799866,0.0154745,0.00224804,-0.0012699,-0.00166645,-0.000590845,0.00678604,0.0233909,-0.00685985,-0.0236696,0.0497715
1413393213755760384,-2.08253,0.899209,3.00086,0.599829,0.0163843,-0.799819,0.0150718,0.000945038,-0.000574326,-0.00436304,-0.000576208,0.00681897,0.0235684,-0.00558619,-0.0235985,0.0468801
1413393213805760512,-2.08393,0.899779,3.00281,0.59969,0.0170704,-0.799903,0.0153789,-0.0024933,-0.00194507,-0.00707269,-0.000580218,0.00685023,0.0237563,-0.0042085,-0.0254079,0.0494082
1413393213855760384,-2.08198,0.897928,3.00118,0.599946,0.0163222,-0.799734,0.0149551,-0.00415977,-0.00265633,-0.00427183,-0.000604978,0.0069418,0.0239799,-0.00743281,-0.025381,0.0472351
1413393213905760512,-2.08136,0.897175,3.00066,0.59996,0.0162017,-0.799731,0.0147167,-0.000447781,-0.00239696,-0.00457011,-0.000548666,0.00697882,0.0241769,-0.0065129,-0.0241388,0.046155
1413393213955760384,-2.08246,0.898051,3.00004,0.599661,0.0170503,-0.799925,0.0153772,0.00334524,-0.00329633,-0.00279647,-0.000586462,0.00703137,0.0244025,-0.00664748,-0.0273131,0.0529377
1413393214005760512,-2.08124,0.8966,2.99869,0.599691,0.0168229,-0.799912,0.0151238,0.00115777,0.00964006,-2.09775e-05,-0.000588736,0.00712682,0.0246312,-0.00900861,-0.0302146,0.0530784
1413393214055760384,-2.08391,0.897898,3.00237,0.599433,0.0182419,-0.800065,0.0156175,0.00200853,0.00529369,-0.000979832,-0.000547576,0.00715352,0.0248303,-0.00777239,-0.0320518,0.0598861
1413393214105760512,-2.08363,0.89689,3.00381,0.599263,0.0180713,-0.800204,0.0152041,0.000448174,-3.31538e-05,0.0012831,-0.00057344,0.00721557,0.0250108,-0.00558046,-0.0390028,0.0585331
1413393214155760384,-2.08533,0.898149,3.0056,0.599261,0.0189196,-0.800173,0.0158844,0.00168854,-0.000150456,0.00161318,-0.000570541,0.00727274,0.0252065,-0.00502989,-0.0391131,0.0646115
1413393214205760512,-2.08417,0.896739,3.00477,0.59923,0.018401,-0.800217,0.015431,-0.00169293,0.00452242,0.00233564,-0.000607209,0.00734484,0.0254371,-0.00616582,-0.043885,0.0657382
1413393214255760384,-2.08468,0.897304,3.00507,0.599299,0.0185707,-0.800165,0.0152346,0.000326475,0.00438259,0.000927036,-0.00060456,0.00738676,0.0256059,-0.00559122,-0.043545,0.0661146
1413393214305760512,-2.08456,0.897459,3.00412,0.599245,0.0184729,-0.800204,0.01541,0.00446887,-8.01293e-05,-3.87555e-05,-0.000620782,0.00747982,0.0258506,-0.00770153,-0.0446942,0.0696955
1413393214355760384,-2.08314,0.896725,3.00145,0.599318,0.0183686,-0.800156,0.0152306,0.00286916,0.00339247,0.00241909,-0.000664435,0.00754916,0.0260034,-0.00906848,-0.0457462,0.067702
1413393214405760512,-2.08232,0.896321,3.00462,0.59951,0.0178362,-0.800029,0.0149192,0.000552904,0.000206179,0.00082513,-0.000684837,0.0076327,0.0261728,-0.00870688,-0.0455949,0.0633413
1413393214455760384,-2.08068,0.895079,3.00357,0.599853,0.0172447,-0.799788,0.0147853,-0.000872201,-0.000784342,0.000323836,-0.000685376,0.00761497,0.0263714,-0.00901872,-0.0408505,0.0597268
1413393214505760512,-2.0782,0.892627,2.99913,0.60033,0.0161377,-0.799468,0.0139338,-0.00247646,-0.00285453,0.0013938,-0.000666658,0.00768778,0.0265962,-0.0131891,-0.0387541,0.051758
1413393214555760384,-2.07525,0.889682,3.00349,0.6011,0.0144417,-0.798934,0.0132097,-0.00349213,-0.00247852,0.000373782,-0.000695854,0.00777178,0.0267248,-0.0166524,-0.034844,0.0364348
1413393214605760512,-2.06986,0.886456,3.00752,0.60144,0.0133845,-0.798719,0.0117864,-0.00387026,0.00081762,2.01169e-05,-0.000697384,0.00782042,0.0269493,-0.0201782,-0.0414683,0.0294799
1413393214655760384,-2.06981,0.885244,2.98536,0.601031,0.0130691,-0.799046,0.0107692,-0.000694121,-0.00151435,0.00138318,-0.00075631,0.00788467,0.0270886,-0.0179376,-0.0567826,0.0427589
1413393214705760512,-2.07008,0.884546,2.99189,0.600395,0.0126499,-0.799542,0.00992646,-0.000561471,0.000278474,-0.00239864,-0.000734046,0.00798032,0.0273156,-0.0154472,-0.0600619,0.0533566
1413393214755760384,-2.07307,0.885765,2.98566,0.599425,0.0127209,-0.800279,0.00911872,0.000139937,0.000794312,-0.00134323,-0.000764905,0.00800261,0.0274637,-0.00783237,-0.0733461,0.0755824
1413393214805760512,-2.10091,0.907166,3.0156,0.594707,0.0230017,-0.803448,0.0163104,0.00250033,-4.52505e-05,0.00107273,-0.000750018,0.00798635,0.0276444,0.0203689,-0.0780628,0.168701
1413393214855760384,-2.10681,0.910714,3.04108,0.593197,0.0235627,-0.804558,0.0157614,0.00154545,9.89179e-05,-0.000821488,-0.00088173,0.00807824,0.0278091,0.0280716,-0.0971551,0.201875
1413393214905760512,-2.10536,0.909376,3.02103,0.591494,0.0235205,-0.805835,0.0145726,0.000774641,-0.000816007,-0.00284846,-0.000807455,0.00807693,0.0280245,0.0426538,-0.104694,0.239105
1413393214955760384,-2.11121,0.91244,3.03492,0.590517,0.0234773,-0.806554,0.0145075,-0.000314009,0.00118947,-0.0023725,-0.000758,0.00811905,0.0282145,0.0485457,-0.10342,0.25828
1413393215005760512,-2.09127,0.89499,3.02454,0.591919,0.014971,-0.805831,0.00663969,0.000575959,0.00256906,-0.00163039,-0.0007082,0.00822134,0.0283348,0.0392842,-0.122213,0.231241
1413393215055760384,-2.09117,0.895175,3.02026,0.591381,0.01399,-0.806252,0.00550325,0.000695989,-0.000992755,0.00283213,-0.000781301,0.00831342,0.0285214,0.0407619,-0.133967,0.242852
1413393215105760512,-2.08733,0.896078,3.01385,0.591184,0.0134592,-0.806409,0.00508535,-0.000170602,-0.0063959,-0.00162732,-0.000798275,0.00835094,0.0287086,0.0422192,-0.137928,0.24841
1413393215155760384,-2.08806,0.893917,3.02127,0.590519,0.0131544,-0.806907,0.00394179,0.000292537,-0.00106045,-0.000413395,-0.000820098,0.00839134,0.028896,0.0468904,-0.151345,0.266561
1413393215205760512,-2.08904,0.895732,3.01909,0.589902,0.0133813,-0.807354,0.0041174,0.00034566,-0.00198005,-0.00246807,-0.00078946,0.00848421,0.029077,0.047581,-0.148317,0.273519
1413393215255760384,-2.08751,0.894393,3.01878,0.589768,0.0126825,-0.807465,0.00367581,0.000724102,-0.00102167,-0.00389426,-0.000799496,0.00845094,0.029181,0.0522928,-0.150448,0.281286
1413393215305760512,-2.08565,0.893583,3.01591,0.589649,0.011996,-0.807565,0.00306618,-0.00101533,2.86883e-05,-0.00300877,-0.000799425,0.00855253,0.0294113,0.0510542,-0.151099,0.283919
1413393215355760384,-2.08176,0.891513,3.01485,0.590028,0.010263,-0.807314,0.00249077,-0.00119692,-0.00457016,-0.00305186,-0.000811708,0.00858657,0.029521,0.0478805,-0.142745,0.277814
1413393215405760512,-2.0807,0.890389,3.0136,0.589586,0.00987633,-0.807643,0.00192345,-0.00719553,-0.00623235,-0.00278581,-0.000816349,0.00864122,0.0297309,0.0494062,-0.147005,0.285027
1413393215455760384,-2.07593,0.88814,2.99892,0.589983,0.00884732,-0.807367,0.00116799,-0.0109549,-0.00397267,-0.00050371,-0.000837656,0.0087727,0.0299038,0.0440051,-0.144749,0.274149
1413393215505760512,-2.07567,0.886448,3.00122,0.589515,0.00898871,-0.807707,0.000569617,-0.00226201,0.000302136,-0.00230495,-0.000864182,0.00881031,0.0300664,0.0473499,-0.160267,0.28492
1413393215555760384,-2.0752,0.886211,3.00407,0.589257,0.00897548,-0.807896,0.000412596,-0.000299813,6.12807e-06,-0.00325245,-0.000878523,0.00884933,0.0302031,0.0497385,-0.158065,0.28717
1413393215605760512,-2.07363,0.885496,3.00074,0.589235,0.00892645,-0.807913,0.000155596,-0.00433677,-0.00433396,-0.00190221,-0.000837015,0.00892393,0.0303816,0.048209,-0.158784,0.287562
1413393215655760384,-2.07013,0.885241,2.99197,0.58987,0.00756027,-0.807463,0.000599751,-0.00950229,-0.00272223,0.000734651,-0.000855662,0.00896385,0.0304814,0.044106,-0.146264,0.27358
1413393215705760512,-2.0635,0.882718,2.97346,0.590246,0.00631285,-0.807199,0.000308481,-0.00231307,-0.00269249,0.000186913,-0.000846367,0.00903608,0.0306227,0.0378203,-0.135625,0.251046
1413393215755760384,-2.05922,0.878646,2.98177,0.590633,0.00567826,-0.80692,-0.000247064,0.00119499,-0.000389984,0.00201451,-0.000787632,0.00906895,0.030744,0.0334569,-0.131199,0.229715
1413393215805760512,-2.05633,0.87663,2.98117,0.590647,0.005338,-0.806912,-0.000661935,-3.34924e-05,-0.00715794,0.0137747,-0.000785071,0.00913674,0.0309041,0.027737,-0.133264,0.221228
1413393215855760384,-2.05104,0.873187,2.97632,0.591366,0.00484998,-0.806389,-0.000952059,-0.00600555,-0.00517232,0.00723497,-0.000836049,0.00918899,0.0311175,0.0194267,-0.132193,0.202862
1413393215905760512,-2.04666,0.870426,2.96961,0.591997,0.00423569,-0.805928,-0.00124594,-0.00654935,-0.00472513,0.00652368,-0.000793592,0.00924496,0.0312954,0.0144547,-0.129727,0.185993
1413393215955760384,-2.04357,0.868996,2.96023,0.592487,0.0036492,-0.805572,-0.00108905,0.00507406,0.00431815,0.0074642,-0.000739263,0.00932656,0.0315073,0.00905446,-0.129909,0.173797
1413393216005760512,-2.0406,0.866657,2.96854,0.5931,0.00362402,-0.80512,-0.00151454,0.0173964,0.009623,0.0112831,-0.000798104,0.00935167,0.031653,0.0071842,-0.128487,0.163487
1413393216055760384,-2.039,0.866264,2.96877,0.593245,0.00398408,-0.80501,-0.00183211,0.00685512,0.0108846,0.00666142,-0.000714429,0.00936482,0.031788,0.00658991,-0.122611,0.160376
1413393216105760512,-2.03576,0.865575,2.96237,0.593678,0.00339791,-0.804694,-0.00162519,0.00424156,0.00960206,-0.00318076,-0.00072549,0.00942035,0.0319528,0.00142194,-0.121693,0.149503
1413393216155760384,-2.0342,0.864826,2.96478,0.594553,0.00376389,-0.804046,-0.00162536,0.00019309,0.00404897,-0.00280669,-0.000760678,0.00946726,0.0320994,-0.00252333,-0.119478,0.138546
1413393216205760512,-2.03224,0.862916,2.96494,0.594677,0.00344166,-0.803955,-0.00179327,-0.00528131,0.00496982,-0.00751799,-0.000731243,0.00952174,0.0322699,-0.0061767,-0.122104,0.133994
1413393216255760384,-2.03064,0.86168,2.96445,0.594036,0.00346302,-0.80443,-0.00159612,-0.0154757,0.00186974,-0.000358749,-0.00072939,0.00957076,0.0324204,-0.00845418,-0.11695,0.123659
1413393216305760512,-2.03064,0.860738,2.96483,0.593004,0.00328466,-0.805191,-0.00150855,-0.0118443,-0.00981425,-0.00447458,-0.000762005,0.00962878,0.0326066,-0.00991569,-0.116957,0.124724
1413393216355760384,-2.02948,0.859398,2.96289,0.592788,0.00265282,-0.805353,-0.00137992,-0.00295569,-0.00121723,-0.0067832,-0.000752093,0.00970193,0.0326933,-0.0101142,-0.115691,0.119993
1413393216405760512,-2.02916,0.859114,2.96195,0.592373,0.00270265,-0.805658,-0.00132176,-0.00354948,-0.0152232,-0.00424942,-0.000731678,0.00971243,0.0328094,-0.00870852,-0.113719,0.117238
1413393216455760384,-2.02958,0.858239,2.96325,0.592425,0.00298044,-0.805619,-0.00172396,-0.00968091,-0.0172964,0.0171856,-0.000769454,0.00970016,0.0329248,-0.00662863,-0.11508,0.120633
1413393216505760512,-2.03005,0.857338,2.96346,0.590627,0.00252203,-0.806938,-0.0023499,-0.00429712,-0.00187359,0.0120616,-0.000724519,0.00969618,0.0330577,-0.00804819,-0.116144,0.121161
1413393216555760384,-2.03048,0.857679,2.96341,0.589967,0.00207619,-0.807419,-0.00321958,-0.00402016,0.00930981,-0.0252946,-0.000756219,0.00970681,0.0331492,-0.0083729,-0.11744,0.118484
1413393216605760512,-2.03038,0.858073,2.96243,0.589561,0.000577195,-0.807718,-0.0029572,0.0040628,0.0241709,-0.0146886,-0.000751421,0.00975992,0.0333505,-0.0128732,-0.116944,0.116875
1413393216655760384,-2.02989,0.858937,2.96323,0.590268,0.000773102,-0.807198,-0.00387934,0.00793299,0.0165927,0.0251986,-0.000675693,0.00979243,0.033493,-0.0135113,-0.115609,0.112523
1413393216705760512,-2.02933,0.860029,2.96601,0.591004,0.00119882,-0.806645,-0.00611868,0.0245764,0.0269816,0.0420869,-0.000722591,0.0098438,0.0336035,-0.0138402,-0.11723,0.119357
1413393216755760384,-2.02772,0.861498,2.96573,0.591222,0.001746,-0.806454,-0.00929794,0.0120136,0.0211985,0.0526186,-0.000743252,0.00986995,0.0337827,-0.0145134,-0.119214,0.118266
1413393216805760512,-2.02776,0.862107,2.97354,0.592004,0.00231979,-0.80585,-0.0115212,0.00982187,0.00832708,0.0832927,-0.000754312,0.0099254,0.0339071,-0.0155565,-0.118889,0.114005
1413393216855760384,-2.02794,0.862762,2.98026,0.593022,0.00321717,-0.805065,-0.0136208,0.0190121,0.00620684,0.0858811,-0.000756564,0.00996083,0.0340599,-0.0170124,-0.119683,0.110812
1413393216905760512,-2.02651,0.862811,2.98953,0.595251,0.00434742,-0.80339,-0.0149522,0.0437151,-0.00844342,0.127783,-0.000762832,0.00999946,0.0341951,-0.0194486,-0.120823,0.102599
1413393216955760384,-2.02403,0.875892,2.94142,0.595949,0.00746341,-0.802822,-0.0163438,0.0599979,-0.00595747,0.146552,-0.000770859,0.0100553,0.0343062,-0.0238036,-0.114563,0.0851976
1413393217005760512,-2.01707,0.852995,3.00814,0.592217,-4.5809e-05,-0.805381,-0.0253162,0.0652327,-0.0162808,0.16488,-0.000687262,0.0100965,0.0344436,-0.00148104,-0.135434,0.151569
1413393217055760384,-2.02684,0.882212,2.9627,0.59413,0.0107403,-0.804139,-0.0159852,0.0691201,-0.0366662,0.23053,-0.000829106,0.0101486,0.0345983,-0.0271026,-0.0981344,0.0709155
1413393217105760512,-2.01374,0.859914,2.98239,0.588026,-0.0023551,-0.808366,-0.0276433,0.0801462,-0.0453487,0.278873,-0.000692653,0.0101722,0.0347032,0.00866254,-0.126919,0.174498
1413393217155760384,-2.03225,0.896046,2.95578,0.591211,0.0131432,-0.806305,-0.0130038,0.0914236,-0.0616624,0.278839,-0.00087288,0.0101863,0.0348565,-0.0202186,-0.0852634,0.0855454
1413393217205760512,-2.01688,0.86719,2.99212,0.585063,-0.00455727,-0.810553,-0.0261517,0.0974413,-0.0789257,0.261936,-0.000668823,0.0102074,0.0349521,0.0166709,-0.0916456,0.198069
1413393217255760384,-2.04446,0.900566,2.98947,0.588479,0.016809,-0.808215,-0.0141162,0.112029,-0.0802492,0.243336,-0.000841277,0.010221,0.0351325,-0.00222449,-0.123343,0.139529
1413393217305760512,-2.01169,0.870027,3.01114,0.583913,-0.00507212,-0.811412,-0.025109,0.109278,-0.119441,0.198733,-0.000706289,0.01029,0.0352274,0.0192527,-0.029893,0.220926
1413393217355760384,-2.04728,0.893906,3.0323,0.584649,0.0210576,-0.810807,-0.0183041,0.12192,-0.140662,0.156856,-0.0008939,0.010334,0.035391,0.0128717,-0.21539,0.193219
1413393217405760512,-2.0221,0.863203,3.0985,0.581301,-0.000692927,-0.813222,-0.0275642,0.126032,-0.144363,0.1484,-0.000737131,0.0103587,0.0354765,0.0255375,-0.101605,0.239179
1413393217455760384,-2.00924,0.85237,3.08283,0.580711,3.23196e-05,-0.813621,-0.0282052,0.14153,-0.161212,0.136389,-0.000730755,0.010436,0.0356266,0.0211575,-0.123334,0.231592
1413393217505760512,-1.99742,0.842646,3.08348,0.580795,0.000315312,-0.813583,-0.0275703,0.152318,-0.181541,0.126565,-0.000749755,0.0104511,0.0357152,0.0179161,-0.104577,0.218131
1413393217555760384,-1.9905,0.832849,3.10419,0.581751,0.000901456,-0.812889,-0.0278982,0.171971,-0.187346,0.104008,-0.000789001,0.0104988,0.035874,0.0113151,-0.112507,0.201401
1413393217605760512,-1.98265,0.824698,3.1057,0.582673,0.00248654,-0.812214,-0.0281808,0.162044,-0.222969,0.0838656,-0.000780652,0.0105422,0.0359666,0.00577224,-0.120658,0.182998
1413393217655760384,-1.97643,0.817812,3.09629,0.584021,0.00608543,-0.811283,-0.0264923,0.17533,-0.227442,0.0905754,-0.000778076,0.0105534,0.0360692,-0.00224204,-0.132946,0.149454
1413393217705760512,-1.96717,0.805581,3.1028,0.584231,0.00583648,-0.811123,-0.0268276,0.186484,-0.241529,0.136789,-0.000816649,0.0105883,0.0362124,-0.00320118,-0.135615,0.149783
1413393217755760384,-1.95815,0.794297,3.1101,0.584629,0.0066297,-0.810851,-0.0261978,0.196898,-0.259537,0.187684,-0.000832523,0.0106589,0.03632,-0.00410867,-0.135394,0.149394
1413393217805760512,-1.9481,0.781634,3.12042,0.58445,0.00630895,-0.810999,-0.0256785,0.211462,-0.25996,0.225181,-0.000818779,0.0106565,0.0364047,-0.0029387,-0.134545,0.144586
1413393217855760384,-1.93681,0.768219,3.13193,0.584411,0.00553314,-0.81105,-0.0251271,0.220469,-0.274002,0.250182,-0.000864727,0.010678,0.0365827,-0.00124291,-0.130772,0.148713
1413393217905760512,-1.92604,0.753551,3.14588,0.584425,0.00548383,-0.811059,-0.0245151,0.218169,-0.305286,0.282754,-0.000852075,0.0107151,0.036665,-0.00035338,-0.130289,0.141513
1413393217955760384,-1.91473,0.738142,3.16031,0.585106,0.00515901,-0.810575,-0.0243704,0.218504,-0.316547,0.294586,-0.000872832,0.0107902,0.0368304,-0.00348612,-0.129919,0.145358
1413393218005760512,-1.90415,0.7213,3.17441,0.584773,0.00398813,-0.810852,-0.023326,0.220084,-0.34356,0.266683,-0.00088928,0.0108582,0.0369811,-0.00271431,-0.129838,0.143641
1413393218055760384,-1.89269,0.703378,3.18661,0.585256,0.00184601,-0.810588,-0.0204731,0.233914,-0.351743,0.213231,-0.000875822,0.0108185,0.0370041,0.00231509,-0.128837,0.145407
1413393218105760512,-1.88038,0.685971,3.19672,0.584886,-0.000949164,-0.810932,-0.017271,0.238567,-0.343901,0.177764,-0.000888337,0.0108611,0.0371532,-0.00152665,-0.130294,0.143284
1413393218155760384,-1.86861,0.668073,3.20375,0.584968,-0.00501362,-0.810951,-0.0121054,0.23739,-0.364628,0.121496,-0.000898558,0.0108616,0.0372904,-0.00186877,-0.127674,0.14686
1413393218205760512,-1.85624,0.649742,3.20868,0.58535,-0.00890664,-0.81071,-0.00591863,0.250919,-0.352069,0.0805274,-0.000872057,0.0108932,0.0373583,-0.00343787,-0.128326,0.142851
1413393218255760384,-1.84301,0.632914,3.21229,0.584494,-0.0135785,-0.811285,-9.08494e-05,0.270402,-0.31229,0.0430433,-0.000837141,0.0109277,0.0374736,-0.00504753,-0.128536,0.141767
1413393218305760512,-1.82966,0.617303,3.21329,0.583081,-0.0171669,-0.812221,0.00442056,0.264322,-0.313391,0.00722719,-0.000929731,0.0110215,0.0376223,-0.00856297,-0.127945,0.145407
1413393218355760384,-1.81595,0.602168,3.2128,0.582831,-0.016927,-0.812404,0.00478195,0.275816,-0.286203,-0.0343443,-0.000856663,0.0109985,0.0377037,-0.00702241,-0.127454,0.14317
1413393218405760512,-1.80175,0.588346,3.21059,0.583564,-0.0146926,-0.811935,3.72355e-05,0.280202,-0.253121,-0.0649644,-0.000862977,0.0110427,0.0378327,-0.00812754,-0.128403,0.143619
1413393218455760384,-1.78773,0.575125,3.2063,0.583831,-0.0114217,-0.811778,-0.0052409,0.278521,-0.266518,-0.0985994,-0.000938975,0.0110999,0.0379653,-0.0100583,-0.129715,0.143598
1413393218505760512,-1.7735,0.561979,3.20117,0.584638,-0.00807185,-0.811187,-0.0104681,0.285569,-0.246849,-0.088401,-0.000900902,0.0111506,0.0380706,-0.012299,-0.129086,0.143668
1413393218555760384,-1.759,0.550231,3.19644,0.585092,-0.00521431,-0.810793,-0.0160052,0.297137,-0.224161,-0.0777572,-0.000903096,0.0111699,0.0381913,-0.0129745,-0.127183,0.141044
1413393218605760512,-1.74394,0.538012,3.19289,0.58611,-0.00254679,-0.809994,-0.0194635,0.301748,-0.252377,-0.0653759,-0.000934223,0.0112288,0.0382926,-0.0140793,-0.127451,0.139861
1413393218655760384,-1.72846,0.525624,3.1898,0.586753,-0.000744479,-0.809474,-0.0217682,0.312907,-0.243976,-0.0681865,-0.000924178,0.011256,0.0383811,-0.0143827,-0.12626,0.13928
1413393218705760512,-1.71279,0.513168,3.18681,0.586823,-0.00129873,-0.80941,-0.022183,0.32419,-0.23756,-0.0598387,-0.000938176,0.0112754,0.0384683,-0.0148922,-0.126764,0.141536
1413393218755760384,-1.69616,0.500441,3.18415,0.585306,-0.000161832,-0.810486,-0.0229916,0.329815,-0.262197,-0.067746,-0.000981089,0.0113397,0.0385726,-0.0180391,-0.127372,0.134842
1413393218805760512,-1.67938,0.487767,3.18011,0.58121,-0.00115193,-0.813471,-0.0214,0.338484,-0.25191,-0.079445,-0.000968996,0.0114193,0.0387187,-0.0208944,-0.12283,0.135039
1413393218855760384,-1.66264,0.474494,3.1755,0.574724,-0.0051141,-0.818141,-0.0176534,0.340579,-0.254651,-0.0723726,-0.000985517,0.0114739,0.0387962,-0.0209143,-0.123245,0.135397
1413393218905760512,-1.64554,0.46125,3.17195,0.568085,-0.00782429,-0.822818,-0.0137757,0.324776,-0.271262,-0.0607072,-0.000986565,0.0113902,0.0389012,-0.0143739,-0.114575,0.138532
1413393218955760384,-1.63007,0.448519,3.16951,0.562381,-0.0101414,-0.826743,-0.0110351,0.296288,-0.257211,-0.0250968,-0.000971243,0.0113772,0.0389249,-0.0140153,-0.114261,0.135967
1413393219005760512,-1.61637,0.435586,3.16869,0.558707,-0.012244,-0.82922,-0.009521,0.25809,-0.255796,0.00258649,-0.00102589,0.0114378,0.0390725,-0.0186314,-0.114631,0.14268
1413393219055760384,-1.60485,0.422344,3.16948,0.556785,-0.0131427,-0.830518,-0.00770842,0.222506,-0.253131,0.0277256,-0.00103274,0.0114821,0.0391199,-0.0201519,-0.116765,0.132261
1413393219105760512,-1.59472,0.410433,3.17176,0.557121,-0.0129384,-0.830295,-0.00769751,0.21961,-0.223308,0.0666939,-0.0010306,0.0115029,0.0392369,-0.0222666,-0.116034,0.132826
1413393219155760384,-1.58344,0.3991,3.17605,0.558222,-0.0131748,-0.829559,-0.00684277,0.208141,-0.200743,0.0810041,-0.00107908,0.0116098,0.0393676,-0.0267545,-0.116427,0.138158
1413393219205760512,-1.57375,0.389429,3.1808,0.55901,-0.012623,-0.829042,-0.0062245,0.185941,-0.191539,0.0994181,-0.00113187,0.0116045,0.0394263,-0.0232214,-0.114009,0.136649
1413393219255760384,-1.56488,0.379953,3.1865,0.560576,-0.0120649,-0.827998,-0.00538802,0.175092,-0.180047,0.129246,-0.00103232,0.0116489,0.0395205,-0.0224669,-0.105036,0.127996
1413393219305760512,-1.55633,0.371158,3.19363,0.561588,-0.0108243,-0.827332,-0.00499369,0.143442,-0.168377,0.135786,-0.00105168,0.0116548,0.0396478,-0.0196888,-0.103439,0.128987
1413393219355760384,-1.55035,0.362944,3.20028,0.561856,-0.0104638,-0.827159,-0.00422503,0.099335,-0.175239,0.135318,-0.00102639,0.0116864,0.0397572,-0.0215424,-0.100252,0.124768
1413393219405760512,-1.54585,0.354589,3.2066,0.562338,-0.010644,-0.826836,-0.00245845,0.0547567,-0.162764,0.119111,-0.000985111,0.011816,0.0398648,-0.0261704,-0.0977061,0.121722
1413393219455760384,-1.54479,0.347186,3.21098,0.563481,-0.0103627,-0.826061,-0.00236228,-0.00123991,-0.146246,0.0628465,-0.00101613,0.0118688,0.0399745,-0.0251738,-0.0966444,0.121353
1413393219505760512,-1.54594,0.340417,3.21316,0.564484,-0.00991728,-0.825381,-0.00231275,-0.0296297,-0.147542,0.0101495,-0.00108815,0.0119932,0.0401943,-0.0297694,-0.0983551,0.125524
1413393219555760384,-1.54802,0.33352,3.21279,0.566241,-0.0096925,-0.824181,-0.00186915,-0.0404619,-0.143765,-0.0277958,-0.00101854,0.0119717,0.0402559,-0.0261274,-0.0916057,0.125252
1413393219605760512,-1.54984,0.327083,3.21129,0.568027,-0.00951393,-0.822952,-0.00208002,-0.0309777,-0.137086,-0.0263383,-0.00105354,0.011984,0.0403697,-0.0252423,-0.0877707,0.125355
1413393219655760384,-1.55138,0.321134,3.21071,0.570346,-0.0092197,-0.821351,-0.00174905,-0.039663,-0.122531,0.0137305,-0.00100191,0.0119819,0.0404466,-0.0235171,-0.0815895,0.121757
1413393219705760512,-1.55784,0.397263,3.21457,0.572638,-0.00667546,-0.819546,0.0196267,-0.0277295,-0.0947046,0.0975047,-0.00121898,0.0120751,0.0405708,-0.0227672,0.246868,0.128274
1413393219755760384,-1.56013,0.393495,3.22076,0.575747,-0.00557706,-0.817395,0.0187217,-0.0705854,-0.0843027,0.161876,-0.00125235,0.0120885,0.0406451,-0.0222357,0.247262,0.129649
1413393219805760512,-1.56322,0.389269,3.22964,0.578955,-0.00382631,-0.815185,0.0164595,-0.0698673,-0.0773106,0.211299,-0.00126234,0.0121201,0.0407586,-0.0230273,0.249814,0.129711
1413393219855760384,-1.56753,0.386077,3.24321,0.580006,-0.00326116,-0.814454,0.0157317,-0.0669899,-0.0673766,0.322346,-0.00125766,0.0121548,0.0408978,-0.0247407,0.248759,0.131445
1413393219905760512,-1.57055,0.382639,3.26007,0.58135,-0.00223815,-0.813523,0.0144536,-0.0662416,-0.0664645,0.339106,-0.00128637,0.0121814,0.0409548,-0.0227257,0.250016,0.128013
1413393219955760384,-1.57407,0.379844,3.2771,0.582748,-0.000905289,-0.812551,0.0128644,-0.068507,-0.0586859,0.33854,-0.00127043,0.0121989,0.0410934,-0.0251291,0.252935,0.126967
1413393220005760512,-1.57707,0.376804,3.29331,0.583876,-0.000403647,-0.81175,0.0122958,-0.0637572,-0.0664719,0.300929,-0.00126548,0.0123011,0.0412219,-0.0286452,0.252278,0.127179
1413393220055760384,-1.57991,0.373039,3.30665,0.585134,-0.000175974,-0.810856,0.0114853,-0.0536113,-0.073809,0.246759,-0.00131813,0.0123272,0.0413149,-0.028456,0.250074,0.130733
1413393220105760512,-1.58265,0.369179,3.31777,0.585704,-0.000339282,-0.81045,0.0110902,-0.0445543,-0.0658287,0.225915,-0.00129705,0.012356,0.0414035,-0.0272113,0.255424,0.126709
1413393220155760384,-1.58399,0.36445,3.32986,0.586222,1.76962e-05,-0.810089,0.00996439,-0.0268658,-0.0728816,0.204143,-0.00120044,0.0123767,0.0414973,-0.0263169,0.262756,0.120647
1413393220205760512,-1.58534,0.3612,3.34074,0.58686,0.00057722,-0.809634,0.00936194,-0.0315471,-0.0750605,0.215404,-0.00121915,0.0123532,0.0415809,-0.0247365,0.258355,0.127207
1413393220255760384,-1.58758,0.358042,3.35157,0.587487,-0.000244282,-0.809179,0.00945514,-0.0156137,-0.0737863,0.214115,-0.00121096,0.0123914,0.0416601,-0.0266912,0.261129,0.124479
1413393220305760512,-1.58697,0.3535,3.3622,0.588055,0.000684881,-0.808779,0.0082551,-0.0010644,-0.0901061,0.221534,-0.00122426,0.012428,0.0417684,-0.0279337,0.260309,0.128124
1413393220355760384,-1.58761,0.34967,3.37339,0.588604,0.000586719,-0.808375,0.00865143,0.00330628,-0.0869881,0.226982,-0.00121121,0.0124552,0.0418962,-0.0293048,0.263163,0.128564
1413393220405760512,-1.58658,0.345503,3.38473,0.588723,-1.1019e-05,-0.808287,0.00875389,0.00687478,-0.0817623,0.240626,-0.00112596,0.0124373,0.0419104,-0.0247017,0.273683,0.123953
1413393220455760384,-1.58654,0.340992,3.39591,0.58806,-0.000264993,-0.808771,0.00869406,0.0148013,-0.103221,0.231851,-0.00117228,0.0124458,0.0420248,-0.0298058,0.265692,0.129845
1413393220505760512,-1.5857,0.335718,3.40681,0.586244,-0.000907515,-0.810081,0.00929418,0.030229,-0.113067,0.220432,-0.00124926,0.0126132,0.042195,-0.0406751,0.259063,0.13372
1413393220555760384,-1.58355,0.3303,3.41626,0.584634,-0.00129796,-0.811242,0.00939753,0.0523745,-0.11165,0.180115,-0.00132256,0.0124538,0.0420378,-0.0270767,0.256943,0.134505
1413393220605760512,-1.58064,0.324159,3.42355,0.583941,-0.00195863,-0.811741,0.00932592,0.0375563,-0.119127,0.119435,-0.00129924,0.0126346,0.0423103,-0.0389532,0.265944,0.132085
1413393220655760384,-1.57954,0.318677,3.42828,0.584612,-0.00182188,-0.811254,0.00968777,0.0402497,-0.123276,0.0731204,-0.00133464,0.0127437,0.0424886,-0.0461224,0.265046,0.135281
1413393220705760512,-1.57664,0.312671,3.43116,0.585098,-0.00278686,-0.810896,0.0100791,0.0661036,-0.112254,0.0323928,-0.00119767,0.0128094,0.0425202,-0.0434797,0.275145,0.126578
1413393220755760384,-1.57337,0.306596,3.43114,0.584687,-0.00456812,-0.811148,0.0126329,0.0583421,-0.138493,-0.0159348,-0.0012509,0.0127963,0.042627,-0.0418168,0.273552,0.133541
1413393220805760512,-1.57017,0.300266,3.42967,0.582437,-0.00718348,-0.812678,0.0164647,0.0594047,-0.122213,-0.00725692,-0.00124454,0.0128612,0.0426869,-0.0413083,0.273618,0.132557
1413393220855760384,-1.56745,0.295019,3.43032,0.580679,-0.0103286,-0.81382,0.0200779,0.0603401,-0.0846035,0.0460945,-0.00127122,0.0129141,0.0427997,-0.0401406,0.272845,0.126283
1413393220905760512,-1.56446,0.290757,3.43378,0.579495,-0.0116998,-0.81458,0.0225544,0.0703563,-0.107241,0.0975655,-0.0011908,0.0128701,0.0428837,-0.03217,0.282631,0.122539
1413393220955760384,-1.56157,0.28646,3.44081,0.578262,-0.0126065,-0.815407,0.0237842,0.0617421,-0.0810866,0.199967,-0.00114899,0.0128518,0.0429514,-0.0301948,0.285492,0.123215
1413393221005760512,-1.5585,0.283262,3.45068,0.578788,-0.0134197,-0.81506,0.0224072,0.0518206,-0.0437777,0.225622,-0.00109229,0.0128,0.0430266,-0.0283279,0.28707,0.123527
1413393221055760384,-1.5562,0.280765,3.4627,0.578216,-0.0136647,-0.815482,0.0216412,0.0375444,-0.0515186,0.255339,-0.0010951,0.0128045,0.0430688,-0.0273869,0.284412,0.120551
1413393221105760512,-1.5552,0.279067,3.47544,0.577133,-0.0138316,-0.816253,0.021399,0.0224612,-0.0176251,0.27344,-0.00106377,0.0127793,0.0431429,-0.0276895,0.285666,0.122473
1413393221155760384,-1.55375,0.279093,3.48993,0.576512,-0.0142197,-0.816716,0.0201663,0.00609887,0.0174842,0.289789,-0.00108081,0.012811,0.0432379,-0.0291575,0.284476,0.123788
1413393221205760512,-1.55536,0.280373,3.50474,0.575099,-0.0141393,-0.817746,0.0187808,-0.00194167,0.00540995,0.293406,-0.00109643,0.0128522,0.0433197,-0.0336312,0.285218,0.12691
1413393221255760384,-1.5541,0.280669,3.51851,0.573561,-0.0131517,-0.818855,0.0182239,0.012096,0.01657,0.27455,-0.00112463,0.0128799,0.0434128,-0.0335787,0.285297,0.124678
1413393221305760512,-1.55423,0.282543,3.53255,0.572065,-0.0128595,-0.819957,0.0157107,0.0217902,0.0171944,0.24803,-0.00117728,0.0128981,0.0434985,-0.0342832,0.286252,0.124917
1413393221355760384,-1.55265,0.282032,3.54248,0.57059,-0.0126144,-0.821001,0.0149948,0.0103353,-0.000157433,0.288966,-0.00118642,0.0129017,0.0435513,-0.0336498,0.286758,0.121143
1413393221405760512,-1.55266,0.283331,3.55882,0.569226,-0.0118658,-0.821979,0.013867,-0.0188081,0.0244505,0.300445,-0.00117764,0.0129916,0.0436866,-0.0358269,0.290342,0.125505
1413393221455760384,-1.55431,0.285571,3.57271,0.568771,-0.0106987,-0.822346,0.0115485,-0.0528257,0.0615783,0.286859,-0.00121702,0.0129625,0.0437347,-0.0325457,0.29056,0.124956
1413393221505760512,-1.55813,0.290248,3.58926,0.56788,-0.0100351,-0.82298,0.0107649,-0.0681963,0.0629611,0.233666,-0.00120694,0.0130634,0.0438263,-0.0373951,0.29713,0.123642
1413393221555760384,-1.56128,0.293891,3.59813,0.567113,-0.00762296,-0.823565,0.00806788,-0.0682905,0.0600599,0.189197,-0.00117433,0.0131033,0.0439,-0.0349929,0.302385,0.12251
1413393221605760512,-1.56625,0.299661,3.60656,0.56681,-0.00610158,-0.823796,0.00701179,-0.099113,0.040158,0.161639,-0.00116093,0.0130867,0.0439707,-0.0299767,0.310329,0.128699
1413393221655760384,-1.57095,0.298634,3.61396,0.567544,-0.00513938,-0.823308,0.00573559,-0.123507,-0.000314462,0.157109,-0.00116863,0.0130089,0.0439561,-0.0251661,0.304386,0.123266
1413393221705760512,-1.57757,0.299139,3.62162,0.57053,-0.00444658,-0.821249,0.00514599,-0.13162,-0.00218428,0.168833,-0.0011903,0.0130901,0.0440893,-0.0303937,0.306653,0.121575
1413393221755760384,-1.58388,0.298249,3.63023,0.574058,-0.00456587,-0.818783,0.00563804,-0.143236,-0.00904774,0.166225,-0.00104331,0.0133643,0.0445382,-0.0530555,0.328296,0.105744
1413393221805760512,-1.59119,0.297122,3.63909,0.577198,-0.00362954,-0.816575,0.00600093,-0.147787,-0.0229728,0.176394,-0.000943619,0.0130836,0.0443524,-0.0235132,0.320836,0.114312
1413393221855760384,-1.59843,0.296228,3.64807,0.579039,-0.00298028,-0.815274,0.00584485,-0.143033,0.00177953,0.171123,-0.000998869,0.0128866,0.044243,-0.010563,0.311816,0.120676
1413393221905760512,-1.60558,0.295941,3.65688,0.580056,-0.00295824,-0.814544,0.00669346,-0.137522,-0.0165468,0.157778,-0.000983651,0.012909,0.044361,-0.0191338,0.313432,0.117685
1413393221955760384,-1.61228,0.29537,3.66466,0.581486,-0.00233826,-0.81351,0.00840556,-0.128988,-0.0302524,0.125143,-0.000769911,0.0131989,0.0448347,-0.0400786,0.334016,0.106286
1413393222005760512,-1.61819,0.293132,3.66994,0.581556,-0.00252487,-0.813456,0.00868033,-0.121044,-0.0255752,0.0633431,-0.000706996,0.0132071,0.0448419,-0.027342,0.327456,0.109673
1413393222055760384,-1.62381,0.290823,3.6717,0.582281,-0.0025205,-0.812929,0.00945289,-0.116935,-0.0424496,-0.000601816,-0.000785076,0.0132541,0.0448648,-0.0249401,0.313054,0.118965
1413393222105760512,-1.6297,0.288367,3.67036,0.583011,-0.00233118,-0.812388,0.0108856,-0.119359,-0.0469856,-0.0624714,-0.000861781,0.0132703,0.0448882,-0.0236117,0.305934,0.121369
1413393222155760384,-1.63549,0.286422,3.66616,0.583085,-0.00154243,-0.812335,0.0110478,-0.106468,-0.0303179,-0.116787,-0.000836359,0.0133804,0.0449949,-0.0281071,0.309148,0.120682
1413393222205760512,-1.6402,0.28441,3.6591,0.583082,-0.0011652,-0.812335,0.0112947,-0.0916481,-0.0414911,-0.175738,-0.000837988,0.0134357,0.0451096,-0.0253377,0.307503,0.119489
1413393222255760384,-1.64439,0.28204,3.64898,0.582015,-0.00079415,-0.813086,0.012245,-0.0836109,-0.0505556,-0.225825,-0.000843976,0.0135595,0.045238,-0.0325735,0.308865,0.115841
1413393222305760512,-1.64839,0.280088,3.63682,0.5798,0.000183331,-0.814673,0.0118177,-0.0897338,-0.0380856,-0.256251,-0.000799616,0.0136131,0.0454462,-0.031806,0.311836,0.112494
1413393222355760384,-1.65327,0.277411,3.62384,0.575591,1.85322e-05,-0.817648,0.0120919,-0.0976939,-0.0444263,-0.2456,-0.000805269,0.0136174,0.0454881,-0.0317887,0.309022,0.109331
1413393222405760512,-1.65825,0.275594,3.61266,0.571517,0.000509025,-0.82049,0.0128331,-0.100383,-0.0352365,-0.212974,-0.000837603,0.0136638,0.0455851,-0.0320555,0.311063,0.1073
1413393222455760384,-1.66339,0.274636,3.60357,0.568018,0.00218008,-0.822933,0.0115022,-0.105061,-0.021737,-0.183973,-0.00078775,0.0136589,0.045668,-0.0262208,0.313532,0.101288
1413393222505760512,-1.66892,0.273112,3.59537,0.565136,0.00202843,-0.824898,0.0127318,-0.140829,-0.0539251,-0.16485,-0.00080263,0.0136544,0.0457614,-0.0257224,0.313176,0.103482
1413393222555760384,-1.6771,0.269677,3.58829,0.563848,0.00113941,-0.825732,0.0155312,-0.151532,-0.0794241,-0.112014,-0.000779657,0.0137876,0.0458718,-0.0327764,0.316733,0.0998749
1413393222605760512,-1.68507,0.265411,3.5833,0.562771,0.00112928,-0.82646,0.0159087,-0.164201,-0.0620887,-0.083348,-0.00074024,0.013838,0.0460157,-0.0257903,0.315428,0.0998715
1413393222655760384,-1.69306,0.262885,3.58033,0.561317,0.00121803,-0.827431,0.0167192,-0.193215,-0.0690921,-0.032867,-0.000722078,0.0137985,0.0460251,-0.0190048,0.312114,0.0982664
1413393222705760512,-1.70375,0.258765,3.57926,0.561675,0.00217668,-0.827201,0.0159613,-0.214696,-0.0794242,0.00808089,-0.000749859,0.0138508,0.0461018,-0.023168,0.310821,0.103583
1413393222755760384,-1.71441,0.255072,3.58011,0.560328,0.00192753,-0.828092,0.0171041,-0.235266,-0.0763449,0.0360925,-0.000817232,0.013853,0.0461668,-0.024358,0.305562,0.106665
1413393222805760512,-1.72662,0.250979,3.58252,0.558795,0.00197497,-0.829119,0.0175239,-0.263394,-0.0783741,0.0802707,-0.000840079,0.0138887,0.0462661,-0.026888,0.30552,0.10868
1413393222855760384,-1.73999,0.247034,3.58685,0.556897,0.00175703,-0.830378,0.0183452,-0.272994,-0.0500211,0.117652,-0.000862089,0.0139274,0.0463359,-0.0254348,0.306461,0.10322
1413393222905760512,-1.75389,0.245651,3.59437,0.555928,0.00200064,-0.830985,0.0201121,-0.290853,-0.0168341,0.167809,-0.000871466,0.0139442,0.0464109,-0.0229841,0.304705,0.107004
1413393222955760384,-1.76911,0.24535,3.60388,0.554387,0.00299899,-0.831983,0.0212382,-0.322836,-0.00516095,0.216543,-0.000870313,0.0139444,0.0465124,-0.0222724,0.308326,0.099998
1413393223005760512,-1.78558,0.245299,3.61501,0.555637,0.00395724,-0.831131,0.0217737,-0.351974,-0.0205654,0.243417,-0.000855153,0.0138962,0.0465551,-0.018744,0.312516,0.105179
1413393223055760384,-1.80459,0.243177,3.62862,0.557408,0.00578675,-0.829923,0.0221535,-0.389896,-0.0410276,0.278439,-0.000851278,0.0139773,0.0466774,-0.026188,0.311023,0.105603
1413393223105760512,-1.82463,0.241032,3.64253,0.559042,0.00687776,-0.828796,0.0228448,-0.411096,-0.0367633,0.2758,-0.000935905,0.0139746,0.0467943,-0.021176,0.307795,0.108428
1413393223155760384,-1.84582,0.239312,3.6555,0.560415,0.00738526,-0.827887,0.0220214,-0.410665,-0.035555,0.279045,-0.000914644,0.0139396,0.0468944,-0.0186175,0.309672,0.0877168
1413393223205760512,-1.86528,0.237317,3.66955,0.562282,0.0104109,-0.826622,0.0206506,-0.419557,-0.0428718,0.275545,-0.00101168,0.0138053,0.0470202,-0.00741094,0.296899,0.092667
1413393223255760384,-1.88708,0.235511,3.68174,0.563358,0.0112154,-0.825897,0.0199279,-0.463178,-0.0589561,0.198532,-0.00102343,0.013752,0.0469732,-0.0142047,0.307042,0.0887567
1413393223305760512,-1.91158,0.231194,3.68967,0.565166,0.0116326,-0.824657,0.0198327,-0.490886,-0.104937,0.121451,-0.00111141,0.0136757,0.0470654,-0.0133584,0.301354,0.086044
1413393223355760384,-1.93636,0.225123,3.69265,0.566607,0.0117555,-0.823684,0.0190669,-0.498667,-0.121328,0.0163921,-0.00117551,0.0136051,0.0472687,-0.0146701,0.299836,0.0846405
1413393223405760512,-1.96119,0.21901,3.69061,0.568791,0.0116412,-0.822184,0.0188757,-0.501008,-0.123034,-0.0856144,-0.00117544,0.0136051,0.0472689,-0.0169111,0.298187,0.0842768
1413393223455760384,-1.98651,0.212995,3.68353,0.571391,0.011912,-0.8204,0.0177462,-0.517312,-0.121278,-0.187854,-0.00158102,0.0135076,0.047264,-0.018926,0.296802,0.0838485
1413393223505760512,-2.01279,0.207011,3.67207,0.574416,0.0116253,-0.818302,0.0171069,-0.523214,-0.118375,-0.25689,-0.00158102,0.0135076,0.0472641,-0.0201242,0.295528,0.0834606
1413393223555760384,-2.03871,0.200927,3.65827,0.577304,0.0109013,-0.816281,0.0169703,-0.525147,-0.114381,-0.307523,-0.00173391,0.0133563,0.0472844,-0.0203239,0.294543,0.0831596
1413393223605760512,-2.06475,0.195759,3.64199,0.579907,0.010695,-0.814458,0.0158913,-0.51,-0.10208,-0.365388,-0.00161703,0.0133061,0.0476805,-0.0213494,0.297463,0.0833133
1413393223655760384,-2.08988,0.190838,3.62307,0.582083,0.00968785,-0.812937,0.0148515,-0.510351,-0.103857,-0.396948,-0.00137357,0.0142383,0.0483039,-0.0384694,0.303384,0.0855892
1413393223705760512,-2.1154,0.185589,3.60327,0.583024,0.00847907,-0.812292,0.0139089,-0.50477,-0.114298,-0.373123,-0.00127661,0.0144176,0.0487084,-0.043533,0.304137,0.0865802
1413393223755760384,-2.14032,0.179293,3.5859,0.583852,0.0073293,-0.811728,0.0127073,-0.500583,-0.133923,-0.295924,-0.00132104,0.0141564,0.0484898,-0.0425252,0.30274,0.0862084
1413393223805760512,-2.16451,0.171946,3.57246,0.584898,0.00527807,-0.811001,0.0120146,-0.479117,-0.159243,-0.225011,-0.00138476,0.0141842,0.0476933,-0.0382287,0.302814,0.0824712
1413393223855760384,-2.18755,0.163651,3.56476,0.583539,0.00361595,-0.812003,0.0109783,-0.456351,-0.160588,-0.126015,-0.00137257,0.014087,0.0478776,-0.0362373,0.30151,0.0809281
1413393223905760512,-2.21084,0.155765,3.55913,0.583751,0.00296455,-0.811886,0.00817948,-0.484156,-0.145133,-0.070052,-0.00141262,0.0137317,0.0476027,-0.0340983,0.30003,0.0790705
1413393223955760384,-2.23487,0.148514,3.55734,0.583282,0.00164545,-0.812239,0.00689646,-0.478897,-0.151001,-0.0254666,-0.00147113,0.0133535,0.0472526,-0.0321396,0.299165,0.0769797
1413393224005760512,-2.25853,0.140918,3.55696,0.584237,5.59949e-05,-0.811559,0.006308,-0.461636,-0.159247,-0.00789614,-0.00152194,0.0132578,0.0474184,-0.033101,0.298932,0.076773
1413393224055760384,-2.28083,0.132808,3.5559,0.583927,-0.00240725,-0.811775,0.00670891,-0.466825,-0.176246,-0.0226585,-0.00151555,0.0135496,0.0480956,-0.0383013,0.299617,0.0791231
1413393224105760512,-2.30458,0.123918,3.55409,0.585181,-0.00480785,-0.810859,0.00685415,-0.493626,-0.237608,-0.0497475,-0.00155324,0.0143466,0.0484812,-0.0367939,0.302793,0.0790983
1413393224155760384,-2.32994,0.110262,3.55181,0.585637,-0.00602758,-0.810531,0.00573248,-0.528844,-0.296844,-0.0565945,-0.00146508,0.0138102,0.0486142,-0.0385935,0.296075,0.0822047
1413393224205760512,-2.35767,0.0935134,3.54791,0.585028,-0.00449119,-0.810996,0.00291388,-0.488828,-0.290438,-0.148349,-0.00147089,0.0138912,0.0486222,-0.0392517,0.29234,0.084484
1413393224255760384,-2.37983,0.0807656,3.53804,0.586578,-0.00572916,-0.809871,0.00167852,-0.44747,-0.266492,-0.19745,-0.00147755,0.0137632,0.0485054,-0.0383741,0.288954,0.0840071
1413393224305760512,-2.4014,0.0677518,3.527,0.588351,-0.00732282,-0.808571,0.00165312,-0.478716,-0.311217,-0.224699,-0.00152724,0.0139397,0.0483901,-0.039009,0.287397,0.0839726
1413393224355760384,-2.42796,0.0501459,3.51565,0.588034,-0.00604624,-0.808814,-0.000603255,-0.511642,-0.349694,-0.245432,-0.00156719,0.0140317,0.0484416,-0.0350418,0.28325,0.0854155
1413393224405760512,-2.45334,0.0319213,3.50224,0.587238,-0.0073356,-0.809375,-0.00316172,-0.471736,-0.320194,-0.298254,-0.00157992,0.0141117,0.0485784,-0.0334373,0.278563,0.0877573
1413393224455760384,-2.47544,0.0168689,3.48521,0.588053,-0.0110965,-0.808737,-0.00397496,-0.41198,-0.278843,-0.36157,-0.00153691,0.0140545,0.0487747,-0.0271083,0.274526,0.0874533
1413393224505760512,-2.49438,0.00439349,3.46554,0.588364,-0.0160245,-0.808423,-0.00483298,-0.371721,-0.242103,-0.415528,-0.00151119,0.0140847,0.0488791,-0.0239795,0.273067,0.086119
1413393224555760384,-2.51259,-0.00711859,3.44354,0.588244,-0.0234097,-0.808333,-0.00442318,-0.35109,-0.246247,-0.444795,-0.00147306,0.0142106,0.0490064,-0.023647,0.272762,0.0850685
1413393224605760512,-2.52938,-0.0200202,3.42175,0.589176,-0.0308953,-0.807393,-0.00576433,-0.325312,-0.242256,-0.476334,-0.00146084,0.0141092,0.0489837,-0.0207834,0.270847,0.082333
1413393224655760384,-2.54501,-0.0314702,3.39781,0.589571,-0.0395672,-0.806716,-0.00705718,-0.337232,-0.228878,-0.424859,-0.00142421,0.0140716,0.0490713,-0.017149,0.26954,0.0803017
1413393224705760512,-2.56233,-0.0434942,3.37798,0.587508,-0.0477744,-0.807754,-0.00926547,-0.350064,-0.246053,-0.390721,-0.00139899,0.0141486,0.0492239,-0.0152459,0.26835,0.0805004
1413393224755760384,-2.58051,-0.0553908,3.35919,0.585236,-0.0562472,-0.808829,-0.0114721,-0.361812,-0.233259,-0.372077,-0.00137073,0.0141363,0.0492345,-0.0112685,0.266573,0.0806045
1413393224805760512,-2.5979,-0.06674,3.34067,0.583071,-0.0640704,-0.809735,-0.015914,-0.327749,-0.21041,-0.365605,-0.00132381,0.0141713,0.0493119,-0.00886094,0.264811,0.0817426
1413393224855760384,-2.614,-0.0773544,3.32311,0.580855,-0.0722662,-0.810562,-0.0193539,-0.3246,-0.219802,-0.329986,-0.00132537,0.0141337,0.0492735,-0.00547213,0.262579,0.082587
1413393224905760512,-2.63085,-0.0878295,3.30796,0.579763,-0.0779925,-0.810712,-0.0232122,-0.325797,-0.202189,-0.274706,-0.00125156,0.0141058,0.0493805,-0.0013182,0.26032,0.0846266
1413393224955760384,-2.64564,-0.0973669,3.29538,0.577943,-0.0839619,-0.811323,-0.0262314,-0.300963,-0.177063,-0.210718,-0.00122688,0.014106,0.0494208,-0.00080456,0.258292,0.0864329
1413393225005760512,-2.66125,-0.10668,3.28634,0.576181,-0.0872896,-0.812077,-0.0304536,-0.305351,-0.185983,-0.155247,-0.00124605,0.0140954,0.0493955,0.00085126,0.256184,0.0880756
1413393225055760384,-2.67642,-0.115306,3.27856,0.574642,-0.0888266,-0.812837,-0.0345405,-0.288566,-0.157979,-0.152848,-0.0012034,0.0140952,0.0495114,0.00171742,0.254279,0.0902724
1413393225105760512,-2.69075,-0.122069,3.27327,0.573864,-0.0911035,-0.812995,-0.0376802,-0.265947,-0.115543,-0.0650652,-0.00121429,0.0140391,0.0495194,0.00259302,0.252887,0.0905937
1413393225155760384,-2.70361,-0.127985,3.27073,0.573636,-0.09227,-0.812905,-0.0401816,-0.248239,-0.119647,-0.0610845,-0.00117312,0.0140508,0.0495917,0.00245491,0.252215,0.0909417
1413393225205760512,-2.71539,-0.133216,3.26818,0.572977,-0.0939219,-0.813188,-0.0400157,-0.234488,-0.102726,-0.0436061,-0.00115242,0.0140164,0.0496234,0.00265897,0.251801,0.0899444
1413393225255760384,-2.72641,-0.138375,3.26583,0.572098,-0.0944831,-0.813651,-0.041818,-0.218877,-0.0834105,-0.0520407,-0.00112214,0.0140533,0.0496869,-0.000168183,0.25212,0.0892102
1413393225305760512,-2.73744,-0.141783,3.26138,0.571334,-0.096394,-0.813933,-0.0424176,-0.223004,-0.0923113,-0.0953398,-0.0010829,0.0140519,0.0497398,0.00619825,0.25333,0.0867032
1413393225355760384,-2.7484,-0.145995,3.25766,0.571496,-0.0989869,-0.813377,-0.0448554,-0.235961,-0.0924836,-0.0673032,-0.00103531,0.0140531,0.049837,-0.00119428,0.25136,0.0877069
1413393225405760512,-2.76194,-0.151377,3.255,0.570565,-0.105149,-0.813179,-0.0462636,-0.23989,-0.0851626,-0.035382,-0.000996744,0.0139336,0.0499116,0.00194853,0.249079,0.0848344
1413393225455760384,-2.77353,-0.155231,3.254,0.569481,-0.112129,-0.812889,-0.0482723,-0.215632,-0.0519201,-0.018709,-0.000977086,0.0138176,0.0499149,0.00432952,0.247171,0.0812781
1413393225505760512,-2.78283,-0.155953,3.25419,0.569431,-0.121079,-0.811508,-0.0504376,-0.201597,0.000283407,-0.0298881,-0.0010083,0.0137474,0.0499394,-0.0018852,0.247693,0.0768896
1413393225555760384,-2.79334,-0.155658,3.25213,0.56792,-0.130914,-0.810808,-0.0540282,-0.241837,0.0446667,-0.0682791,-0.00108282,0.0136803,0.0499329,-0.00375096,0.248606,0.0727898
1413393225605760512,-2.80804,-0.151395,3.24782,0.567357,-0.14199,-0.809008,-0.0587481,-0.26495,0.101114,-0.0664387,-0.00105321,0.0135046,0.0499512,-0.00115463,0.24838,0.0740702
1413393225655760384,-2.81937,-0.144904,3.24451,0.56753,-0.152607,-0.806468,-0.0650479,-0.246701,0.131939,-0.050504,-0.00107548,0.0133918,0.0499623,-0.00494925,0.249989,0.0740033
1413393225705760512,-2.83204,-0.138556,3.24302,0.567604,-0.165621,-0.80326,-0.0719037,-0.254443,0.159934,-0.0201051,-0.00111237,0.013273,0.0499565,-0.00819842,0.249575,0.0755339
1413393225755760384,-2.84467,-0.129587,3.24211,0.567225,-0.175487,-0.800441,-0.0821841,-0.264008,0.176701,-0.0082232,-0.0011554,0.0132026,0.0499959,-0.013157,0.251983,0.0772557
1413393225805760512,-2.85732,-0.119891,3.2424,0.566641,-0.184003,-0.797595,-0.0943601,-0.249051,0.204457,0.0314464,-0.0012167,0.0131247,0.0500117,-0.0196191,0.248596,0.0793644
1413393225855760384,-2.86932,-0.109948,3.24307,0.563205,-0.193386,-0.795575,-0.111635,-0.239337,0.196851,-0.0123494,-0.00127441,0.0133027,0.0499735,-0.0256201,0.262951,0.0773591
1413393225905760512,-2.88133,-0.100484,3.24046,0.56269,-0.19982,-0.792878,-0.121644,-0.24233,0.182799,-0.0902643,-0.00124849,0.0133752,0.0500296,-0.0262868,0.272038,0.0784426
1413393225955760384,-2.8939,-0.0914453,3.23357,0.560254,-0.209764,-0.789555,-0.136814,-0.25747,0.176645,-0.181337,-0.00135642,0.0133863,0.0500207,-0.0314599,0.272334,0.0752158
1413393226005760512,-2.90662,-0.0831327,3.22321,0.559263,-0.219536,-0.785521,-0.148278,-0.260987,0.158715,-0.240207,-0.00136845,0.0134315,0.0500561,-0.02963,0.276738,0.0793226
1413393226055760384,-2.91986,-0.0761072,3.21078,0.557752,-0.231281,-0.781397,-0.157608,-0.269638,0.140405,-0.242977,-0.00132245,0.0135886,0.0501284,-0.027443,0.291502,0.083069
1413393226105760512,-2.93303,-0.0706281,3.20027,0.555667,-0.242257,-0.778378,-0.163321,-0.267095,0.105817,-0.230447,-0.00130067,0.0136921,0.0501557,-0.0186371,0.304194,0.0954333
1413393226155760384,-2.94508,-0.0630678,3.19086,0.552098,-0.267976,-0.768368,-0.181625,-0.250727,0.1169,-0.203478,3.42451e-05,0.0134912,0.0497139,-0.0253312,0.287677,0.0894419
1413393226205760512,-2.93692,-0.0600325,3.17962,0.551159,-0.231346,-0.786145,-0.157096,-0.22103,0.0957332,-0.163889,-0.00397089,0.01461,0.0516469,0.00725004,0.214199,0.189824
1413393226255760384,-2.98503,-0.0258627,3.20923,0.569934,-0.232573,-0.774654,-0.144904,-0.266755,0.0991639,-0.0961376,-0.00550597,0.0130668,0.0515921,-0.0597737,0.398059,-0.00238294
1413393226305760512,-2.99124,-0.0108138,3.19942,0.575027,-0.237879,-0.76822,-0.150321,-0.215201,0.106811,-0.073432,-0.00540292,0.0124729,0.0519453,-0.0918539,0.403439,-0.0971416
1413393226355760384,-3.00136,-0.00504121,3.19873,0.573145,-0.246614,-0.767084,-0.149228,-0.206102,0.09155,-0.0331567,-0.00537014,0.0125045,0.0519638,-0.0913724,0.418695,-0.109151
1413393226405760512,-3.00987,0.000429513,3.19598,0.570004,-0.253653,-0.767228,-0.148718,-0.209605,0.0785588,-0.0267971,-0.00539478,0.0125781,0.0519531,-0.0941888,0.440868,-0.114159
1413393226455760384,-3.01791,0.00540216,3.18765,0.566902,-0.260606,-0.767614,-0.146545,-0.265915,0.0691061,-0.0382047,-0.00541034,0.0124547,0.0519176,-0.0952152,0.483422,-0.119372
1413393226505760512,-3.03975,1.79108e-06,3.19651,0.554739,-0.265267,-0.772724,-0.157466,-0.315517,0.0749394,-0.0835025,-0.00464296,0.0131364,0.0524282,-0.0784887,0.325631,-0.0479222
1413393226555760384,-3.05554,0.00920602,3.241,0.55843,-0.269105,-0.77129,-0.144401,-0.287329,0.0794209,-0.0976203,-0.00528054,0.0127606,0.0521329,-0.0859774,0.492881,-0.0913067
1413393226605760512,-3.06138,0.00346981,3.20818,0.538823,-0.282407,-0.777351,-0.160131,-0.262788,0.108526,-0.128029,-0.00373153,0.0140447,0.0523387,-0.0333445,0.308511,0.0848089
1413393226655760384,-3.07238,0.0112811,3.18774,0.539139,-0.287375,-0.776124,-0.156128,-0.279554,0.133902,-0.107332,-0.00390145,0.0139736,0.0519366,-0.0252741,0.394301,0.0664221
1413393226705760512,-3.08712,0.0213056,3.18054,0.541638,-0.282656,-0.775718,-0.158101,-0.293582,0.155568,-0.107072,-0.00439441,0.0138053,0.0519416,-0.0272566,0.417125,0.0361703
1413393226755760384,-3.10148,0.027254,3.17847,0.541225,-0.28188,-0.774623,-0.166069,-0.301243,0.18287,-0.0977776,-0.00423152,0.0138941,0.0519549,-0.0195924,0.39417,0.0487209
1413393226805760512,-3.11709,0.0364881,3.17206,0.541629,-0.278281,-0.774546,-0.171105,-0.331572,0.165389,-0.0905647,-0.00427597,0.0138658,0.0519974,-0.0180752,0.392145,0.051639
1413393226855760384,-3.13416,0.0450704,3.16623,0.542135,-0.274691,-0.77475,-0.17435,-0.338443,0.153359,-0.116101,-0.00433533,0.0138889,0.052068,-0.0203686,0.393521,0.0553988
1413393226905760512,-3.15212,0.0527081,3.16141,0.541923,-0.271321,-0.775302,-0.177795,-0.347911,0.146401,-0.104533,-0.00428247,0.0139061,0.0521671,-0.0213832,0.404485,0.0605212
1413393226955760384,-3.16977,0.0600743,3.15643,0.541933,-0.269374,-0.775739,-0.178818,-0.374488,0.135928,-0.0922937,-0.00437285,0.0139915,0.052172,-0.0244729,0.404422,0.0563602
1413393227005760512,-3.18883,0.0674883,3.15173,0.542068,-0.267353,-0.776187,-0.179498,-0.386186,0.125971,-0.0939605,-0.00439503,0.0140445,0.0522197,-0.0244163,0.409025,0.0527977
1413393227055760384,-3.20972,0.0756958,3.1469,0.54358,-0.265079,-0.776653,-0.176253,-0.407021,0.104784,-0.087569,-0.00463962,0.0141571,0.0523238,-0.0237937,0.432145,0.0574904
1413393227105760512,-3.2328,0.0856615,3.14081,0.546778,-0.259908,-0.777809,-0.168806,-0.427892,0.0735495,-0.0937374,-0.00507141,0.0142053,0.0525176,-0.0114725,0.501058,0.0770711
1413393227155760384,-3.25696,0.0891339,3.13578,0.548863,-0.25712,-0.778257,-0.164179,-0.438411,0.0605258,-0.0845384,-0.00551962,0.0143387,0.0526643,-0.0117355,0.48517,0.0862601
1413393227205760512,-3.28229,0.0975584,3.13061,0.550899,-0.255043,-0.778386,-0.159933,-0.442562,0.0606042,-0.0678647,-0.00585172,0.0144466,0.0527673,-0.010674,0.474346,0.0931662
1413393227255760384,-3.30762,0.103928,3.12745,0.55443,-0.256084,-0.777162,-0.151816,-0.439506,0.0706353,-0.0431178,-0.00627259,0.0145499,0.0527546,-0.00926905,0.519424,0.105517
1413393227305760512,-3.32925,0.107651,3.12479,0.554703,-0.257374,-0.776888,-0.150029,-0.428294,0.0665456,-0.0488169,-0.00630202,0.0145717,0.0528223,-0.0074979,0.519041,0.104629
1413393227355760384,-3.3508,0.11127,3.12272,0.555761,-0.258821,-0.776055,-0.147918,-0.41964,0.0609696,-0.0320013,-0.00594518,0.0147235,0.0529988,0.000654239,0.572558,0.0973654
1413393227405760512,-3.37178,0.11429,3.12079,0.555521,-0.260055,-0.775995,-0.146968,-0.410244,0.0749787,-0.0269473,-0.00623189,0.0147069,0.052957,-0.00522045,0.537963,0.098627
1413393227455760384,-3.39211,0.118145,3.11894,0.555794,-0.261606,-0.775472,-0.145941,-0.412217,0.0824226,-0.0350685,-0.00625509,0.0147271,0.0529595,-0.00868523,0.530408,0.0987769
1413393227505760512,-3.41306,0.122307,3.11687,0.556124,-0.262504,-0.774975,-0.145716,-0.415305,0.0861884,-0.0490104,-0.00625389,0.0147851,0.0530223,-0.00949011,0.528231,0.0986112
1413393227555760384,-3.4338,0.127177,3.11447,0.557419,-0.264419,-0.773312,-0.146135,-0.408663,0.0961372,-0.0459484,-0.00631155,0.0146343,0.0530811,-0.00203805,0.520316,0.0967745
1413393227605760512,-3.454,0.131691,3.11238,0.558248,-0.267787,-0.771402,-0.146929,-0.407647,0.10063,-0.0441129,-0.0063318,0.0146201,0.0531452,-0.00184896,0.518357,0.0932567
1413393227655760384,-3.4744,0.137267,3.11046,0.558082,-0.271482,-0.769786,-0.149236,-0.413552,0.117823,-0.0442971,-0.00633565,0.0147188,0.0531858,-0.00782135,0.517997,0.0927426
1413393227705760512,-3.49526,0.143391,3.1073,0.557027,-0.276536,-0.768105,-0.152524,-0.41062,0.129787,-0.0592622,-0.00637282,0.0147146,0.0532315,-0.00848811,0.51415,0.0920619
1413393227755760384,-3.51586,0.149904,3.10301,0.556349,-0.282947,-0.765531,-0.156136,-0.379871,0.129505,-0.0747721,-0.00645836,0.0146914,0.0533434,-0.00631602,0.506605,0.0928182
1413393227805760512,-3.53362,0.155576,3.09884,0.55496,-0.28899,-0.763259,-0.161057,-0.342142,0.140627,-0.10018,-0.00644614,0.0147692,0.053319,-0.0113326,0.516169,0.0896152
1413393227855760384,-3.54985,0.163717,3.09425,0.554696,-0.297135,-0.759528,-0.164747,-0.311884,0.180398,-0.114139,-0.00644539,0.0146888,0.0533907,-0.00817897,0.522974,0.0963626
1413393227905760512,-3.56486,0.173281,3.08871,0.553703,-0.305317,-0.755935,-0.16958,-0.294413,0.207406,-0.105086,-0.00640427,0.0147802,0.0534034,-0.0142715,0.526476,0.0919095
1413393227955760384,-3.57864,0.18452,3.08321,0.553539,-0.313561,-0.751411,-0.175086,-0.267857,0.226678,-0.106606,-0.00639623,0.0149129,0.0534299,-0.0214764,0.529037,0.0907088
1413393228005760512,-3.59143,0.196262,3.07718,0.552215,-0.323154,-0.74693,-0.180902,-0.243191,0.241261,-0.114783,-0.00641039,0.0149452,0.053454,-0.0250003,0.530343,0.0909247
1413393228055760384,-3.60342,0.208196,3.07183,0.550373,-0.332661,-0.742206,-0.188565,-0.239818,0.235527,-0.105099,-0.00641454,0.015019,0.0534598,-0.0299581,0.532593,0.0902284
1413393228105760512,-3.61487,0.220121,3.06735,0.548296,-0.342487,-0.737534,-0.19524,-0.22364,0.238167,-0.0613309,-0.00639246,0.0150748,0.0534803,-0.029998,0.535683,0.0866592
1413393228155760384,-3.62551,0.232046,3.06397,0.544738,-0.352119,-0.733516,-0.203043,-0.203436,0.23845,-0.0668875,-0.0063186,0.0150864,0.0535698,-0.0261282,0.539529,0.0822241
1413393228205760512,-3.63582,0.244325,3.06198,0.540861,-0.361723,-0.729929,-0.209357,-0.205838,0.242677,-0.0425432,-0.00590512,0.0150088,0.0535497,-0.0190749,0.557908,0.0697057
1413393228255760384,-3.64592,0.256764,3.05999,0.537063,-0.369022,-0.72694,-0.216666,-0.204476,0.261147,-0.0337001,-0.00572931,0.0151536,0.0536167,-0.027285,0.564389,0.0741021
1413393228305760512,-3.6564,0.270424,3.05786,0.533719,-0.375649,-0.723969,-0.223386,-0.209717,0.279495,-0.0306772,-0.00565998,0.0152018,0.0536515,-0.0272274,0.564901,0.0762703
1413393228355760384,-3.66707,0.284727,3.05592,0.530747,-0.3812,-0.721197,-0.229935,-0.216974,0.291274,-0.0185601,-0.00563423,0.0151807,0.0537119,-0.025311,0.560873,0.080074
1413393228405760512,-3.67761,0.299681,3.05529,0.527565,-0.387345,-0.718102,-0.236576,-0.212913,0.304049,-0.0118425,-0.00549371,0.0152827,0.0537486,-0.0281485,0.563794,0.0767758
1413393228455760384,-3.68861,0.315015,3.0544,0.525037,-0.394498,-0.714175,-0.242203,-0.222665,0.31487,-0.00534656,-0.00542312,0.0153074,0.0537799,-0.0272641,0.563392,0.0762017
1413393228505760512,-3.70025,0.330832,3.05386,0.523909,-0.40035,-0.709474,-0.248769,-0.233488,0.306641,-0.00110893,-0.00535244,0.0153641,0.0538222,-0.0270977,0.563087,0.0764895
1413393228555760384,-3.71122,0.346139,3.05373,0.522264,-0.407186,-0.704895,-0.254091,-0.204008,0.303658,0.00451904,-0.00526088,0.0153234,0.0538348,-0.0223819,0.564411,0.0726869
1413393228605760512,-3.72126,0.360785,3.05387,0.519096,-0.414013,-0.701499,-0.258905,-0.202893,0.29858,0.0185342,-0.00521048,0.015343,0.0538976,-0.022028,0.561747,0.073414
1413393228655760384,-3.73153,0.375441,3.05452,0.516953,-0.420276,-0.698265,-0.261829,-0.218414,0.297166,0.0284435,-0.00516997,0.0154405,0.053896,-0.0239041,0.560613,0.0718994
1413393228705760512,-3.74265,0.390377,3.05574,0.513829,-0.424218,-0.696781,-0.265548,-0.223183,0.313264,0.0172756,-0.00512551,0.0153683,0.0539654,-0.015781,0.556261,0.0743769
1413393228755760384,-3.75484,0.405926,3.05603,0.511357,-0.428638,-0.695113,-0.267586,-0.247394,0.321679,0.0162855,-0.00514852,0.0153282,0.0540472,-0.0126889,0.548403,0.0747602
1413393228805760512,-3.76808,0.42231,3.05541,0.508527,-0.432814,-0.69475,-0.2672,-0.259302,0.326242,0.000695401,-0.00518494,0.0153027,0.0541078,-0.0119191,0.54013,0.0782436
1413393228855760384,-3.78093,0.43963,3.0578,0.505273,-0.438103,-0.694552,-0.265261,-0.243598,0.311516,-0.00363479,-0.00477685,0.0154958,0.0540242,-0.0123918,0.566425,0.0837465
1413393228905760512,-3.79313,0.454453,3.05773,0.501532,-0.441403,-0.695879,-0.263406,-0.236922,0.315434,-0.000106042,-0.004744,0.015533,0.054088,-0.0132198,0.560208,0.0858678
1413393228955760384,-3.80506,0.469873,3.05675,0.500358,-0.443285,-0.695633,-0.263125,-0.239761,0.348698,-0.0233904,-0.00483962,0.0155282,0.0541391,-0.0162497,0.543104,0.0810502
1413393229005760512,-3.81708,0.488702,3.05511,-0.498723,0.443148,0.696064,0.265312,-0.229036,0.411867,-0.0350812,-0.00483794,0.015562,0.0542087,-0.0179862,0.53829,0.0841457
1413393229055760384,-3.82938,0.510008,3.05155,-0.496621,0.439416,0.697897,0.270594,-0.244236,0.468413,-0.0772372,-0.00490593,0.0155801,0.0542741,-0.0151954,0.525865,0.0864664
1413393229105760512,-3.84139,0.534872,3.04689,-0.496536,0.436009,0.698427,0.27486,-0.240587,0.494156,-0.109624,-0.00488426,0.015621,0.0542917,-0.0148391,0.531047,0.0887238
1413393229155760384,-3.85332,0.560213,3.04209,-0.495914,0.43265,0.699298,0.279044,-0.226509,0.4687,-0.0885708,-0.0048215,0.0156666,0.054333,-0.0135555,0.536961,0.0956521
1413393229205760512,-3.86487,0.582303,3.0373,-0.495538,0.429354,0.700166,0.282605,-0.239011,0.426448,-0.0944027,-0.00485091,0.0156833,0.0544144,-0.0117482,0.536721,0.098146
1413393229255760384,-3.87691,0.602939,3.03298,-0.495547,0.426435,0.700939,0.28508,-0.249956,0.399167,-0.0859235,-0.00481511,0.0156862,0.0544604,-0.00903867,0.539774,0.0995971
1413393229305760512,-3.88956,0.622552,3.02908,-0.496297,0.424185,0.70096,0.287077,-0.260879,0.384456,-0.0753333,-0.00477664,0.0157271,0.0544932,-0.00796029,0.544195,0.101154
1413393229355760384,-3.90376,0.641066,3.02576,-0.497583,0.4223,0.700769,0.288092,-0.304793,0.399191,-0.0736981,-0.0047943,0.0157273,0.0545589,-0.00450264,0.542452,0.103308
1413393229405760512,-3.91974,0.661784,3.02098,-0.499722,0.421569,0.699984,0.287368,-0.339536,0.415987,-0.0804543,-0.00478745,0.0156644,0.054632,0.00252784,0.538064,0.105714
1413393229455760384,-3.93771,0.68244,3.01666,0.503293,-0.422694,-0.69784,-0.284684,-0.370024,0.402173,-0.0709368,-0.0047744,0.0156453,0.054676,0.00480502,0.536583,0.106465
1413393229505760512,-3.95719,0.702079,3.01314,0.506893,-0.424504,-0.69587,-0.280395,-0.41563,0.353844,-0.0669464,-0.00473653,0.0156662,0.0547105,0.00695169,0.537999,0.10581
1413393229555760384,-3.97912,0.717721,3.01019,0.508406,-0.427339,-0.694649,-0.276349,-0.402066,0.352497,-0.0505081,-0.00470034,0.015675,0.054761,0.00793461,0.535601,0.105644
1413393229605760512,-4.00403,0.734236,3.00608,0.509322,-0.431323,-0.693211,-0.272049,-0.351917,0.388216,-0.042352,-0.00455789,0.0156388,0.054797,0.0105092,0.53146,0.104103
1413393229655760384,-4.02323,0.753042,3.00287,0.509047,-0.434471,-0.693427,-0.266956,-0.350845,0.391545,-0.0469819,-0.00447275,0.0156279,0.0548322,0.0150351,0.531683,0.102722
1413393229705760512,-4.0409,0.772696,3.00031,0.507298,-0.435961,-0.695038,-0.263645,-0.353632,0.403475,-0.0478674,-0.00444236,0.0155842,0.0549026,0.0218785,0.529342,0.103294
1413393229755760384,-4.05928,0.792704,2.99791,0.50542,-0.437308,-0.696639,-0.260781,-0.402447,0.401201,-0.0411845,-0.00442792,0.0155085,0.0549556,0.0276165,0.526229,0.10408
1413393229805760512,-4.08187,0.812471,2.99554,0.502009,-0.439322,-0.698755,-0.258312,-0.387086,0.41963,-0.0354398,-0.00441919,0.0154669,0.0549958,0.030345,0.523005,0.104623
1413393229855760384,-4.14149,0.811237,2.95535,0.500262,-0.444311,-0.693129,-0.268139,-0.328534,0.432295,-0.0241626,-0.00346825,0.0149114,0.0551712,-0.0322393,0.464256,-0.0426771
1413393229905760512,-4.15838,0.831892,2.9516,-0.497861,0.445093,0.694961,0.266562,-0.304904,0.434477,-0.0146691,-0.00342331,0.0148772,0.0552252,-0.0363419,0.46226,-0.0483941
1413393229955760384,-4.17327,0.854106,2.95147,-0.496367,0.444477,0.696493,0.266376,-0.306428,0.465025,-0.00694223,-0.00336803,0.0148625,0.0552633,-0.0377608,0.464292,-0.0520943
1413393230005760512,-4.18871,0.877933,2.95205,-0.494716,0.44222,0.698143,0.268875,-0.30852,0.495595,0.0398038,-0.00334178,0.0148784,0.0553257,-0.0383038,0.462383,-0.0511718
1413393230055760384,-4.20559,0.903146,2.95394,-0.494482,0.43734,0.699137,0.274645,-0.338855,0.517521,0.0425616,-0.00332667,0.0148225,0.0553786,-0.0333481,0.456745,-0.0494691
1413393230105760512,-4.22296,0.928984,2.95526,-0.494577,0.432829,0.699747,0.280013,-0.351077,0.539228,0.0311064,-0.00337246,0.0148058,0.0554361,-0.0374409,0.451108,-0.0539627
1413393230155760384,-4.24151,0.956145,2.95645,-0.495166,0.429523,0.699749,0.284028,-0.372506,0.557607,0.0286492,-0.00333812,0.0147918,0.0554857,-0.0386127,0.451061,-0.0530072
1413393230205760512,-4.26096,0.984196,2.95703,-0.495123,0.426411,0.700381,0.287216,-0.393304,0.546532,0.0205559,-0.00331963,0.0148138,0.0555131,-0.041677,0.450085,-0.0519932
1413393230255760384,-4.28128,1.01079,2.95782,-0.49673,0.424215,0.699707,0.289328,-0.402502,0.532577,0.0180067,-0.00334013,0.0148243,0.0555542,-0.0426785,0.4473,-0.0526592
1413393230305760512,-4.30375,1.03548,2.95764,-0.49904,0.422934,0.69835,0.290507,-0.414834,0.533481,0.0277592,-0.00329796,0.0148145,0.0556055,-0.0432891,0.444502,-0.0584788
1413393230355760384,-4.33235,1.05738,2.95751,-0.49995,0.425259,0.696323,0.290414,-0.425595,0.535453,0.00580726,-0.00307679,0.0148363,0.0556417,-0.0503894,0.429804,-0.0726864
1413393230405760512,-4.30481,1.11507,2.9785,0.503552,-0.418996,-0.70429,-0.273594,-0.433128,0.523672,-0.00479338,-0.00428693,0.0153489,0.0556764,0.00371264,0.491649,0.054963
1413393230455760384,-4.37884,1.10861,2.96367,0.501089,-0.4303,-0.693532,-0.287689,-0.460011,0.551515,-0.00336822,-0.00288098,0.0149648,0.0557349,-0.0410134,0.405819,-0.0510185
1413393230505760512,-4.34375,1.17241,2.98248,0.505038,-0.427274,-0.700722,-0.267139,-0.492264,0.540959,-0.0019125,-0.00432295,0.0153864,0.0556655,0.0238462,0.525623,0.0899989
1413393230555760384,-4.34349,1.22145,3.00485,0.502556,-0.432014,-0.704294,-0.254503,-0.541666,0.544134,-0.0378445,-0.00493742,0.0158877,0.0554846,0.0924683,0.589132,0.246411
1413393230605760512,-4.39061,1.22889,2.99099,0.503426,-0.436637,-0.697209,-0.264217,-0.572191,0.579194,-0.0327652,-0.00451367,0.0156946,0.0558534,0.0385813,0.499556,0.118783
1413393230655760384,-4.42143,1.25833,2.98969,0.501261,-0.445417,-0.692501,-0.266052,-0.586206,0.571255,-0.0142332,-0.00446883,0.0157154,0.0559058,0.0391517,0.487088,0.121283
1413393230705760512,-4.45159,1.28659,2.99031,-0.498208,0.45354,0.687918,0.269926,-0.567906,0.580266,0.0434223,-0.00446418,0.0157407,0.055993,0.0406039,0.476984,0.126847
1413393230755760384,-4.4791,1.31506,2.99315,-0.495284,0.462575,0.6824,0.273952,-0.52114,0.580218,0.0671598,-0.0044389,0.0157373,0.0560509,0.0406295,0.470054,0.130292
1413393230805760512,-4.50391,1.34337,2.99742,-0.492012,0.471443,0.676877,0.278395,-0.493804,0.603681,0.088467,-0.00440625,0.0157759,0.0560872,0.0419552,0.464656,0.13235
1413393230855760384,-4.52755,1.37447,3.00185,-0.487188,0.480054,0.671736,0.284546,-0.4543,0.64738,0.0946514,-0.0043836,0.0158319,0.0562029,0.0435099,0.460208,0.13628
1413393230905760512,-4.54966,1.40718,3.00679,-0.481709,0.488337,0.666456,0.292097,-0.429998,0.671786,0.117465,-0.00435419,0.0158389,0.0562474,0.0459573,0.455266,0.140887
1413393230955760384,-4.57046,1.44092,3.01248,-0.474828,0.494807,0.662457,0.301422,-0.399787,0.698987,0.123946,-0.00438817,0.0158798,0.0562844,0.0472194,0.448883,0.146046
1413393231005760512,-4.58995,1.47669,3.01795,-0.467491,0.499857,0.659192,0.311547,-0.371131,0.719938,0.132613,-0.00447326,0.0158693,0.0562443,0.048515,0.440929,0.150127
1413393231055760384,-4.60837,1.51308,3.02431,-0.460077,0.503491,0.656985,0.321241,-0.365106,0.735678,0.115884,-0.00425234,0.0160836,0.0562976,0.0467333,0.444791,0.15658
1413393231105760512,-4.62711,1.54993,3.03039,-0.454293,0.506086,0.654708,0.329927,-0.382155,0.72337,0.103028,-0.00424485,0.016076,0.0563423,0.0502219,0.439827,0.164584
1413393231155760384,-4.6463,1.58573,3.03573,-0.449558,0.508392,0.65254,0.337087,-0.398543,0.720681,0.109035,-0.00423186,0.016065,0.0563288,0.051426,0.436667,0.167116
1413393231205760512,-4.66739,1.62157,3.04036,-0.445941,0.511514,0.650218,0.341623,-0.437476,0.720641,0.110752,-0.00451743,0.0159804,0.0563525,0.0531322,0.421773,0.170196
1413393231255760384,-4.69174,1.65679,3.04636,-0.442503,0.513688,0.648386,0.346281,-0.48913,0.708572,0.11097,-0.00474154,0.0160313,0.0563603,0.0508194,0.409635,0.175132
1413393231305760512,-4.79871,1.68357,3.06074,-0.431611,0.516015,0.643139,0.365805,-0.468424,0.704455,0.0595324,-0.00381601,0.0166378,0.0569794,0.00735358,0.102813,0.114349
1413393231355760384,-4.80841,1.70046,3.06135,-0.436637,0.510319,0.642769,0.368472,-0.441774,0.693272,0.013356,-0.00420183,0.0166865,0.0574355,-0.0330622,0.0291737,0.0258311
1413393231405760512,-4.83017,1.73494,3.06026,-0.439221,0.513114,0.639329,0.367502,-0.444773,0.695141,-0.0225307,-0.00420795,0.0166919,0.0574555,-0.0354221,0.023916,0.0229874
1413393231455760384,-4.85216,1.76922,3.057,-0.444154,0.515522,0.634423,0.366705,-0.428838,0.69156,-0.0537388,-0.00428173,0.0167491,0.057334,-0.0373106,0.0229787,0.0203974
1413393231505760512,-4.8734,1.80322,3.05296,-0.451192,0.516719,0.628538,0.366561,-0.433292,0.687374,-0.0963354,-0.00434237,0.0168414,0.0574145,-0.0390158,0.0239688,0.0188976
1413393231555760384,-4.89507,1.83815,3.0471,-0.45984,0.516007,0.622068,0.367853,-0.443042,0.689387,-0.141013,-0.00432899,0.0169509,0.0575617,-0.0387296,0.0278343,0.0173628
1413393231605760512,-4.9166,1.87278,3.04008,-0.467685,0.515395,0.615858,0.369268,-0.422061,0.668417,-0.171176,-0.00390084,0.0170544,0.0580375,-0.0364396,0.0385634,0.0171564
1413393231655760384,-4.93775,1.90537,3.03112,-0.472732,0.515551,0.610966,0.370746,-0.416477,0.638101,-0.191316,-0.00385862,0.0170288,0.0581405,-0.0352402,0.0390433,0.0162208
1413393231705760512,-4.95763,1.93684,3.02132,-0.474095,0.516326,0.608239,0.372407,-0.38406,0.613562,-0.196323,-0.00383371,0.0172239,0.0583365,-0.0353711,0.0403866,0.0150574
1413393231755760384,-4.9761,1.96686,3.01134,-0.472519,0.519395,0.606212,0.373445,-0.341829,0.580029,-0.186755,-0.00379154,0.0170075,0.0583522,-0.0343643,0.0383458,0.0159657
1413393231805760512,-4.99287,1.99449,3.0022,-0.469985,0.523725,0.604602,0.373207,-0.326151,0.536938,-0.178177,-0.00373564,0.016801,0.0580586,-0.0403706,0.0359328,0.0164259
1413393231855760384,-5.00815,2.02084,2.99383,-0.467774,0.529961,0.602169,0.371109,-0.287076,0.51516,-0.158809,-0.00374316,0.0167325,0.0579631,-0.0493534,0.0347367,0.0177012
1413393231905760512,-5.0216,2.0464,2.98635,-0.46335,0.538365,0.599735,0.368495,-0.246539,0.506915,-0.126801,-0.00374335,0.0169372,0.0574977,-0.0608792,0.0356181,0.0151278
1413393231955760384,-5.03309,2.07188,2.98045,-0.459628,0.546571,0.596334,0.36659,-0.215778,0.510165,-0.110077,-0.00379714,0.0173725,0.0578987,-0.0600094,0.0380047,0.0138396
1413393232005760512,-5.04253,2.09719,2.97593,-0.455659,0.554484,0.592287,0.366222,-0.165424,0.495114,-0.106757,-0.00384943,0.0173439,0.0582936,-0.0551149,0.033734,0.0157685
1413393232055760384,-5.0498,2.1222,2.97175,-0.449852,0.561123,0.588973,0.368627,-0.132948,0.500284,-0.0803216,-0.00384444,0.0175568,0.0586928,-0.0481932,0.0335678,0.0159549
1413393232105760512,-5.05604,2.1468,2.96858,-0.444064,0.567167,0.584982,0.372727,-0.108455,0.482906,-0.0687725,-0.00379156,0.0175258,0.0589072,-0.0467872,0.0305606,0.0168461
1413393232155760384,-5.06073,2.17083,2.9649,-0.438075,0.573092,0.580379,0.377909,-0.0720619,0.480678,-0.0795344,-0.00374779,0.0175957,0.0588998,-0.0496842,0.029655,0.0163667
1413393232205760512,-5.06374,2.19527,2.96124,-0.431939,0.577181,0.575391,0.386285,-0.0460913,0.496255,-0.0717635,-0.00374763,0.0175958,0.0589,-0.0527125,0.0288054,0.0161372
1413393232255760384,-5.0655,2.2203,2.95677,-0.426313,0.582154,0.569632,0.39354,-0.0242957,0.50634,-0.0984134,-0.0037476,0.0175959,0.0589001,-0.0555326,0.0279329,0.0162555
1413393232305760512,-5.06585,2.24607,2.95134,-0.420901,0.587368,0.563424,0.400493,0.00503666,0.50614,-0.120527,-0.00374757,0.017596,0.0589002,-0.0579994,0.0270504,0.0166159
1413393232355760384,-5.06538,2.27126,2.94499,-0.416256,0.594107,0.556065,0.405659,0.0253244,0.506685,-0.151901,-0.00374756,0.0175961,0.0589004,-0.0602408,0.0261368,0.0168176
1413393232405760512,-5.06311,2.29679,2.93687,-0.410527,0.600944,0.55,0.409676,0.0601622,0.503056,-0.171195,-0.00374755,0.0175962,0.0589005,-0.0624718,0.0255128,0.0170871
1413393232455760384,-5.05929,2.3216,2.92682,-0.405111,0.607376,0.543557,0.414157,0.0914968,0.48876,-0.213768,-0.00367664,0.017857,0.0588455,-0.0630198,0.0261177,0.0158843
1413393232505760512,-5.05434,2.34586,2.91512,-0.400387,0.613781,0.537115,0.417697,0.119214,0.4989,-0.237058,-0.00373461,0.0175282,0.0586767,-0.0631704,0.024021,0.0154086
1413393232555760384,-5.04767,2.37136,2.90342,-0.396507,0.619009,0.531558,0.420782,0.142354,0.511873,-0.255632,-0.00396611,0.0172013,0.0580649,-0.0588696,0.0215807,0.0138872
1413393232605760512,-5.04035,2.39688,2.89025,-0.393171,0.622871,0.527387,0.423451,0.155125,0.511193,-0.27101,-0.00392531,0.0171563,0.058228,-0.0604541,0.0219342,0.0141486
1413393232655760384,-5.03195,2.4225,2.87772,-0.39102,0.626655,0.52296,0.425346,0.186379,0.520671,-0.238867,-0.00395414,0.0169664,0.058151,-0.0603896,0.0217484,0.0139712
1413393232705760512,-5.02246,2.44881,2.86637,-0.389359,0.629325,0.519364,0.427329,0.191118,0.531408,-0.226941,-0.00387253,0.0171173,0.0584993,-0.0620961,0.0224338,0.0152186
1413393232755760384,-5.01224,2.47533,2.85564,-0.386566,0.630752,0.517855,0.429587,0.210141,0.529751,-0.20267,-0.00386971,0.0172099,0.0587999,-0.0615399,0.0227478,0.015633
1413393232805760512,-5.00117,2.50192,2.84552,-0.384209,0.632437,0.516436,0.43093,0.235137,0.539586,-0.198771,-0.00388774,0.0172213,0.0588071,-0.0611293,0.0227903,0.0160926
1413393232855760384,-4.98941,2.52918,2.83615,-0.383162,0.633316,0.514928,0.432375,0.236699,0.544523,-0.191361,-0.00390601,0.0172347,0.0588152,-0.0607863,0.0226994,0.0164895
1413393232905760512,-4.97706,2.55596,2.82682,-0.380737,0.634207,0.515296,0.432772,0.255848,0.534458,-0.181095,-0.00395834,0.0171985,0.0587767,-0.061097,0.0221352,0.0168619
1413393232955760384,-4.96388,2.5826,2.81926,-0.376959,0.63326,0.516958,0.435475,0.272467,0.533256,-0.136488,-0.00384673,0.0172763,0.0590378,-0.0607914,0.0218577,0.017808
1413393233005760512,-4.95034,2.60973,2.8133,-0.373697,0.632625,0.518781,0.437037,0.276737,0.553463,-0.105403,-0.00379635,0.017067,0.0591705,-0.0599004,0.0191146,0.0183481
1413393233055760384,-4.93614,2.63789,2.80932,-0.370496,0.631469,0.521049,0.438734,0.2857,0.570036,-0.0654384,-0.00370739,0.0168734,0.0593511,-0.0522776,0.0196304,0.0168555
1413393233105760512,-4.92144,2.66652,2.80703,-0.367549,0.631256,0.523033,0.439159,0.303923,0.566716,-0.0276189,-0.003715,0.0167875,0.0592514,-0.0512952,0.0192119,0.0171443
1413393233155760384,-4.90622,2.69526,2.80679,-0.36617,0.630485,0.524361,0.439833,0.304558,0.580842,0.019365,-0.00384456,0.0170235,0.0589963,-0.0556999,0.0222014,0.0182679
1413393233205760512,-4.89071,2.72493,2.80905,-0.365068,0.629206,0.525295,0.441465,0.311563,0.602589,0.0743061,-0.00382643,0.0172088,0.059122,-0.0600068,0.0221621,0.0220493
1413393233255760384,-4.8745,2.75522,2.81423,-0.364657,0.627805,0.523778,0.445581,0.332727,0.601135,0.117554,-0.00384296,0.0172954,0.059142,-0.0606992,0.022507,0.0235443
1413393233305760512,-4.85801,2.78573,2.82153,-0.363971,0.626557,0.521958,0.450013,0.3267,0.614979,0.165233,-0.00380637,0.0173468,0.0592494,-0.0605777,0.0219903,0.0256053
1413393233355760384,-4.8415,2.81643,2.83105,-0.364258,0.625674,0.517997,0.455553,0.333043,0.615718,0.223148,-0.00381373,0.0173075,0.0592378,-0.0591318,0.0207978,0.0263206
1413393233405760512,-4.82489,2.84679,2.84246,-0.364631,0.625948,0.512474,0.46109,0.332351,0.600606,0.237358,-0.00382489,0.0173379,0.0592414,-0.0598218,0.0190068,0.0272538
1413393233455760384,-4.80858,2.87681,2.85572,-0.366326,0.628711,0.504329,0.464951,0.316847,0.590891,0.291288,-0.00380532,0.017266,0.059277,-0.0557649,0.018032,0.0272324
1413393233505760512,-4.79308,2.90551,2.87207,-0.363276,0.631152,0.499051,0.469708,0.313957,0.549813,0.335982,-0.003831,0.0172591,0.059234,-0.0542927,0.0181463,0.0269856
1413393233555760384,-4.77703,2.93228,2.88932,-0.360747,0.635863,0.492564,0.472144,0.329955,0.520747,0.339948,-0.00381109,0.0173328,0.0593308,-0.0517008,0.0210341,0.0279454
1413393233605760512,-4.76017,2.95836,2.90743,-0.354369,0.64074,0.488078,0.475031,0.342467,0.515877,0.387092,-0.00379869,0.0172962,0.0593744,-0.049723,0.0207633,0.0282238
1413393233655760384,-4.74284,2.983,2.92707,-0.346788,0.647214,0.483771,0.476254,0.346072,0.496865,0.422336,-0.00374526,0.0173186,0.0595226,-0.0454456,0.0212675,0.0296917
1413393233705760512,-4.72532,3.00664,2.94819,-0.338999,0.654673,0.478917,0.476573,0.331931,0.482606,0.45792,-0.00379037,0.0174504,0.059374,-0.0444188,0.0329046,0.0277678
1413393233755760384,-4.70915,3.03085,2.97312,-0.331552,0.659014,0.473488,0.481231,0.313094,0.489868,0.516043,-0.00373223,0.0174617,0.059523,-0.0447836,0.0331022,0.0304991
1413393233805760512,-4.69423,3.05505,2.99909,-0.325974,0.661588,0.469375,0.48552,0.285649,0.481959,0.530653,-0.00373203,0.0175008,0.0595143,-0.0414667,0.035587,0.0300836
1413393233855760384,-4.68054,3.07953,3.02508,-0.321255,0.66042,0.460427,0.498645,0.248094,0.497378,0.511733,-0.00375744,0.0175173,0.0594461,-0.0395068,0.0412791,0.0284446
1413393233905760512,-4.66869,3.10419,3.05047,-0.323661,0.664888,0.449082,0.501492,0.222052,0.495536,0.503091,-0.00379508,0.0175013,0.0594289,-0.0395262,0.0438296,0.0277299
1413393233955760384,-4.65816,3.12865,3.07567,-0.321274,0.666838,0.442304,0.506437,0.211695,0.479731,0.489528,-0.00382914,0.0174899,0.0594738,-0.0399257,0.039299,0.0287315
1413393234005760512,-4.6485,3.15251,3.0997,-0.319915,0.672266,0.434077,0.507238,0.180567,0.47862,0.488634,-0.00385145,0.0175065,0.0594643,-0.0384261,0.0408931,0.0292567
1413393234055760384,-4.63966,3.17609,3.12387,-0.318024,0.678626,0.425747,0.507019,0.166982,0.463508,0.471422,-0.00384794,0.0175292,0.0595131,-0.0355148,0.0414183,0.0328884
1413393234105760512,-4.63138,3.19882,3.14719,-0.314003,0.685644,0.418176,0.506383,0.161751,0.440713,0.447937,-0.00385101,0.017557,0.0595612,-0.0319584,0.0430114,0.0375243
1413393234155760384,-4.62353,3.22082,3.16816,-0.309477,0.692419,0.411269,0.505606,0.143218,0.413334,0.401746,-0.00385902,0.0175989,0.0595628,-0.0326636,0.0443159,0.0414583
1413393234205760512,-4.61635,3.24102,3.18725,-0.307871,0.69732,0.404636,0.505203,0.15233,0.36841,0.403985,-0.00392782,0.0176056,0.0595998,-0.0322277,0.043559,0.0446379
1413393234255760384,-4.60196,3.25714,3.21032,-0.332974,0.686973,0.424308,0.48699,0.177315,0.350058,0.410694,-0.00663042,0.0175016,0.0600394,-0.00688558,0.127793,0.105231
1413393234305760512,-4.62355,3.2842,3.23249,-0.319949,0.707394,0.384129,0.499672,0.239444,0.286753,0.410185,-0.00459142,0.017701,0.0592143,0.00260771,0.109203,0.120675
1413393234355760384,-4.58703,3.28894,3.2803,-0.338872,0.682907,0.415695,0.495986,0.190743,0.300586,0.368178,-0.00686087,0.0183008,0.0607775,-0.00197708,-0.0212281,0.108498
1413393234405760512,-4.54565,3.29203,3.27861,-0.334578,0.697366,0.405378,0.487244,0.216652,0.251327,0.262872,-0.00715143,0.0186165,0.0598888,0.0766664,0.0180273,0.295715
1413393234455760384,-4.5316,3.29806,3.27742,-0.331958,0.711736,0.386674,0.483445,0.213065,0.219548,0.193273,-0.00688903,0.0185973,0.0593117,0.116657,0.0565769,0.38972
1413393234505760512,-4.52275,3.30836,3.28579,-0.330658,0.714528,0.376813,0.487983,0.213666,0.156675,0.144099,-0.00685721,0.0185861,0.0593209,0.11808,0.0537493,0.389726
1413393234555760384,-4.51151,3.31447,3.2935,-0.325259,0.71677,0.369924,0.493563,0.244373,0.0830192,0.18801,-0.0068566,0.0186372,0.0593675,0.119339,0.0530909,0.39318
1413393234605760512,-4.49836,3.31671,3.30134,-0.317074,0.719774,0.363013,0.499611,0.279791,0.0330863,0.188946,-0.0069149,0.0185305,0.0592492,0.112816,0.0598635,0.375311
1413393234655760384,-4.48334,3.31748,3.31412,-0.306102,0.716011,0.361649,0.512679,0.301773,-0.0362672,0.259627,-0.00686446,0.0186139,0.0593707,0.123896,0.0559987,0.392106
1413393234705760512,-4.46846,3.31366,3.33086,-0.290248,0.714135,0.36294,0.52349,0.297181,-0.114115,0.407264,-0.0068618,0.0186285,0.0594009,0.125045,0.0573852,0.392723
1413393234755760384,-4.45437,3.30656,3.35197,-0.274956,0.715668,0.363262,0.529395,0.275807,-0.166751,0.427696,-0.00684128,0.0186689,0.0594438,0.123994,0.0561968,0.399238
1413393234805760512,-4.44105,3.29746,3.37354,-0.258291,0.719456,0.364188,0.532011,0.251712,-0.197574,0.4204,-0.00683931,0.0186461,0.0594515,0.122982,0.0573694,0.394761
1413393234855760384,-4.42918,3.28691,3.39285,-0.245297,0.726259,0.362166,0.530296,0.231312,-0.223052,0.344997,-0.00684282,0.0186806,0.0595103,0.118928,0.0531159,0.396448
1413393234905760512,-4.41821,3.2756,3.40835,-0.236352,0.73418,0.355868,0.527709,0.211879,-0.239526,0.253514,-0.00682362,0.0186909,0.0595632,0.120761,0.0500195,0.396729
1413393234955760384,-4.40844,3.26343,3.41891,-0.229976,0.741888,0.347197,0.525516,0.190989,-0.25061,0.145905,-0.00677414,0.0187487,0.0596212,0.118587,0.0444242,0.40465
1413393235005760512,-4.39891,3.25042,3.4234,-0.228076,0.749965,0.334549,0.523079,0.175261,-0.258106,0.0432514,-0.00675249,0.0187305,0.0595813,0.117233,0.0517068,0.399093
1413393235055760384,-4.39036,3.23741,3.42318,-0.227253,0.756795,0.321369,0.521862,0.169709,-0.261931,-0.0563244,-0.00673603,0.0187602,0.0596121,0.113254,0.048614,0.398458
1413393235105760512,-4.3819,3.22392,3.41795,-0.225599,0.763001,0.308243,0.52146,0.167202,-0.269216,-0.148278,-0.00671967,0.0187741,0.059641,0.114584,0.0490771,0.398241
1413393235155760384,-4.3737,3.21026,3.40831,-0.221602,0.768854,0.29665,0.521301,0.171005,-0.273547,-0.224149,-0.00670744,0.0187754,0.0596618,0.115582,0.0517922,0.397592
1413393235205760512,-4.36511,3.19649,3.39625,-0.211422,0.771651,0.290948,0.5246,0.170193,-0.279913,-0.24554,-0.0066919,0.0187837,0.0597058,0.111462,0.0510773,0.394929
1413393235255760384,-4.35664,3.18227,3.38356,-0.200259,0.775569,0.284837,0.526551,0.166249,-0.284679,-0.264776,-0.00666419,0.018816,0.0597372,0.111397,0.0519863,0.394774
1413393235305760512,-4.34845,3.16838,3.37086,-0.188118,0.778654,0.28,0.529065,0.16053,-0.27754,-0.245254,-0.00665432,0.0188107,0.0597778,0.104458,0.0524277,0.389638
1413393235355760384,-4.34075,3.15481,3.35908,-0.17632,0.782339,0.276544,0.529509,0.150338,-0.26008,-0.239928,-0.00662001,0.0188414,0.0598083,0.104296,0.0523682,0.39038
1413393235405760512,-4.33338,3.14261,3.34781,-0.165177,0.785772,0.274893,0.528879,0.130878,-0.236878,-0.223465,-0.00660645,0.0188509,0.0598589,0.104523,0.0493733,0.387646
1413393235455760384,-4.33027,3.12849,3.33749,-0.151989,0.79107,0.265551,0.529709,0.125816,-0.20256,-0.209626,-0.00611905,0.0188578,0.059738,0.104021,0.0454306,0.389466
1413393235505760512,-4.349,3.10118,3.32649,-0.107443,0.80966,0.213325,0.536096,0.125929,-0.171329,-0.164827,-0.00253754,0.0188661,0.0587561,0.108987,0.0247636,0.406819
1413393235555760384,-4.3385,3.08336,3.31743,-0.11686,0.806783,0.222797,0.534609,0.171433,-0.1053,-0.097515,-0.0037534,0.0186879,0.0585532,0.1145,0.178584,0.424679
1413393235605760512,-4.33028,3.08033,3.31188,-0.1051,0.804249,0.22514,0.539861,0.174928,-0.0524611,-0.10161,-0.00373053,0.0187024,0.0585993,0.11186,0.175294,0.423694
1413393235655760384,-4.32175,3.07974,3.30807,-0.0964803,0.802288,0.224821,0.5445,0.166448,0.00610325,-0.0734778,-0.00372434,0.0187173,0.0586235,0.112868,0.171366,0.42262
1413393235705760512,-4.31423,3.08244,3.30463,-0.0912193,0.799908,0.223503,0.549429,0.132881,0.0707606,-0.0755721,-0.00371156,0.0187296,0.0586617,0.112681,0.167953,0.422311
1413393235755760384,-4.30906,3.08845,3.30254,-0.0899038,0.799192,0.220027,0.552085,0.107162,0.123103,-0.068256,-0.00370036,0.0187669,0.0587152,0.111354,0.159783,0.420178
1413393235805760512,-4.32015,3.10871,3.3024,-0.088133,0.796044,0.21139,0.560234,0.0820331,0.166218,-0.0607061,-0.00328935,0.0185624,0.0589805,0.0724455,0.108496,0.32148
1413393235855760384,-4.32873,3.12661,3.29309,-0.0945149,0.793711,0.200857,0.566345,0.0587903,0.1903,-0.0667027,-0.00299785,0.0183744,0.0592192,0.0388958,0.0786385,0.238788
1413393235905760512,-4.32232,3.13977,3.28255,-0.105733,0.793978,0.192625,0.566847,0.0353376,0.207626,-0.0771933,-0.00310144,0.018437,0.0593484,0.0360189,0.0536719,0.241293
1413393235955760384,-4.3171,3.15038,3.28797,-0.115545,0.795085,0.184183,0.566185,0.0203667,0.231041,-0.0748094,-0.00317352,0.0185528,0.0594547,0.0402385,0.0219541,0.253379
1413393236005760512,-4.29426,3.14736,3.28208,-0.128604,0.795305,0.180697,0.564181,-0.00520395,0.232587,-0.0529332,-0.00375673,0.018559,0.0594324,0.0523318,0.0672448,0.295663
1413393236055760384,-4.31416,3.17254,3.28214,-0.126694,0.796947,0.162793,0.567735,-0.0032532,0.234283,-0.0478173,-0.00317661,0.0186137,0.059403,0.0463436,0.0316122,0.272274
1413393236105760512,-4.31322,3.18975,3.27849,-0.125947,0.799016,0.153184,0.567667,0.0448559,0.2338,-0.00856328,-0.00311602,0.0187359,0.0594077,0.0524429,0.00314383,0.289992
1413393236155760384,-4.2866,3.1746,3.27793,-0.135471,0.798835,0.149983,0.566582,0.0235635,0.179964,0.00556284,-0.00380257,0.0184601,0.0594567,0.0489241,0.0971696,0.28065
1413393236205760512,-4.26892,3.15704,3.27746,-0.135713,0.803001,0.145325,0.56183,0.00965986,0.145127,0.0395676,-0.0042992,0.0184266,0.0592526,0.0648503,0.18946,0.33853
1413393236255760384,-4.26056,3.16659,3.27914,-0.123734,0.804863,0.146698,0.561574,-0.0110017,0.124108,0.0769262,-0.00445828,0.0185625,0.0595481,0.0655639,0.123358,0.339638
1413393236305760512,-4.26069,3.17234,3.28255,-0.10959,0.807157,0.142531,0.562293,0.009491,0.0917235,0.0668491,-0.00442448,0.0185732,0.059582,0.0639819,0.118884,0.337932
1413393236355760384,-4.26035,3.17717,3.28697,-0.0975689,0.80916,0.13597,0.563252,0.00422752,0.0880689,0.106646,-0.00441865,0.0185932,0.059622,0.0610533,0.114702,0.338617
1413393236405760512,-4.26066,3.18175,3.29196,-0.0891317,0.811692,0.127947,0.562887,0.00170331,0.0999358,0.10574,-0.0044082,0.0186121,0.0596661,0.059471,0.112615,0.339542
1413393236455760384,-4.2605,3.18642,3.29737,-0.0821809,0.813628,0.118664,0.563182,0.000487717,0.0961291,0.0912266,-0.00439794,0.0186114,0.0596981,0.0608827,0.110993,0.339547
1413393236505760512,-4.26021,3.19146,3.3021,-0.0763418,0.817302,0.108383,0.560752,0.0094711,0.0981352,0.0926065,-0.00438212,0.0186178,0.0597242,0.0584871,0.110473,0.339504
1413393236555760384,-4.25944,3.19682,3.30719,-0.069974,0.821656,0.0986061,0.557012,0.0182703,0.108029,0.108502,-0.00440277,0.0186514,0.059764,0.0552511,0.107574,0.341077
1413393236605760512,-4.25845,3.20248,3.31275,-0.0638147,0.827424,0.0887308,0.55084,0.0306563,0.116437,0.120887,-0.00441488,0.0186537,0.0597915,0.0555311,0.106881,0.341397
1413393236655760384,-4.25667,3.20832,3.31779,-0.0586397,0.832372,0.0788805,0.545432,0.0763582,0.128939,0.0705607,-0.00440618,0.0186665,0.0598071,0.0555145,0.106457,0.342221
1413393236705760512,-4.25163,3.21528,3.31976,-0.0553491,0.835195,0.0698622,0.542684,0.0978923,0.14167,0.0118126,-0.00441828,0.0186697,0.0598341,0.0547483,0.105602,0.342572
1413393236755760384,-4.24636,3.22261,3.31894,-0.0544796,0.836525,0.0596022,0.541946,0.0943676,0.134385,-0.0327521,-0.00439862,0.0186827,0.0598607,0.0561282,0.10577,0.343118
1413393236805760512,-4.24372,3.22957,3.31613,-0.0552221,0.836289,0.0480894,0.543378,0.114122,0.131088,-0.0828876,-0.00436373,0.0186895,0.0598691,0.0555665,0.0972812,0.343221
1413393236855760384,-4.27089,3.27379,3.32117,-0.0362465,0.835825,0.0293367,0.547013,0.151403,0.112137,-0.0799811,-0.00328913,0.0192414,0.0598761,0.0627839,-0.0745958,0.3732
1413393236905760512,-4.2577,3.27405,3.32253,-0.0392228,0.833513,0.0271159,0.550439,0.167103,0.0858888,-0.0128889,-0.00359263,0.0190997,0.0599861,0.0513334,-0.0417797,0.34466
1413393236955760384,-4.2482,3.27721,3.32197,-0.035929,0.830502,0.024298,0.555325,0.203056,0.0525946,0.0317749,-0.00360795,0.0191173,0.060011,0.049342,-0.0397241,0.343274
1413393237005760512,-4.23723,3.27926,3.32678,-0.0312044,0.827582,0.0242576,0.559952,0.235811,0.0296055,0.117499,-0.00360646,0.0191522,0.0600538,0.0474728,-0.0375689,0.34524
1413393237055760384,-4.22509,3.27944,3.33886,-0.0267064,0.825425,0.0249535,0.563327,0.232442,0.0196957,0.177732,-0.00358385,0.0191339,0.0600748,0.0489581,-0.0326287,0.344063
1413393237105760512,-4.18308,3.23037,3.323,-0.0513414,0.83073,0.0125471,0.55416,0.243668,0.0225029,0.23754,-0.00450499,0.0179244,0.0584786,0.101205,0.63488,0.493506
1413393237155760384,-4.16996,3.23295,3.29851,-0.0388191,0.829119,0.0246127,0.557179,0.243741,0.0262035,0.230956,-0.00458618,0.0182436,0.0587361,0.132952,0.508167,0.538176
1413393237205760512,-4.15753,3.23453,3.3094,-0.0316838,0.827202,0.030395,0.560187,0.240391,0.0429065,0.186191,-0.00458339,0.0182613,0.0587491,0.128309,0.511241,0.547332
1413393237255760384,-4.14515,3.23672,3.31629,-0.0267148,0.825741,0.0344613,0.562362,0.246555,0.0495805,0.118074,-0.00458583,0.0182932,0.0587971,0.127182,0.509589,0.550859
1413393237305760512,-4.1333,3.24001,3.32048,-0.0227203,0.825834,0.0381784,0.562161,0.227646,0.0816217,0.0703036,-0.00457385,0.0183054,0.0588394,0.129128,0.509199,0.551964
1413393237355760384,-4.12237,3.24482,3.32196,-0.0203959,0.826009,0.0415017,0.561757,0.197029,0.127113,0.0105459,-0.00455257,0.0183071,0.0588671,0.130031,0.508628,0.555776
1413393237405760512,-4.11355,3.25234,3.32114,-0.019612,0.825348,0.0430006,0.562643,0.184937,0.150111,-0.0548613,-0.00455349,0.0183423,0.058916,0.129379,0.507271,0.557333
1413393237455760384,-4.104,3.26061,3.31729,-0.0224063,0.825,0.042576,0.563081,0.175713,0.186277,-0.0862621,-0.00453818,0.0183427,0.0589778,0.129363,0.507861,0.557774
1413393237505760512,-4.09557,3.27055,3.31301,-0.0290273,0.824667,0.0398336,0.563468,0.16408,0.217944,-0.107365,-0.00452798,0.0183484,0.0589975,0.131894,0.507422,0.562374
1413393237555760384,-4.0879,3.2821,3.30785,-0.0376939,0.825036,0.0354033,0.562709,0.151543,0.238858,-0.103803,-0.00451683,0.0183517,0.0590155,0.134826,0.504855,0.56061
1413393237605760512,-4.08017,3.2944,3.3031,-0.0466294,0.824829,0.0306565,0.562622,0.146507,0.245008,-0.0944679,-0.0044966,0.0183349,0.0590372,0.136299,0.50446,0.566662
1413393237655760384,-4.07303,3.30657,3.29884,-0.055398,0.826215,0.025969,0.560023,0.144514,0.234295,-0.0750492,-0.00448518,0.0183427,0.0590443,0.136504,0.502874,0.568287
1413393237705760512,-4.06553,3.31801,3.29499,-0.0625422,0.826824,0.0225245,0.558519,0.147049,0.211733,-0.0807888,-0.00447787,0.01834,0.0590681,0.139077,0.503539,0.569518
1413393237755760384,-4.058,3.32778,3.29179,-0.0675006,0.82783,0.020951,0.556509,0.142915,0.189565,-0.0745479,-0.00448542,0.0183488,0.0590973,0.137968,0.500679,0.576555
1413393237805760512,-4.05055,3.33698,3.28808,-0.0705072,0.828686,0.0203915,0.554881,0.148211,0.164175,-0.0594697,-0.00450138,0.0183852,0.0591391,0.137127,0.498319,0.576017
1413393237855760384,-4.04336,3.34427,3.28462,-0.0705125,0.830093,0.0220056,0.552711,0.150223,0.138023,-0.0705087,-0.00448617,0.0183916,0.0591448,0.137661,0.50272,0.580764
1413393237905760512,-4.03582,3.35043,3.28202,-0.0686459,0.831883,0.02486,0.550129,0.154947,0.113662,-0.0455403,-0.00447138,0.0183855,0.0591829,0.140706,0.5024,0.581426
1413393237955760384,-4.02769,3.35575,3.27989,-0.0664133,0.833001,0.0271378,0.548601,0.159518,0.0853441,-0.0537452,-0.00445697,0.0183458,0.0591798,0.146648,0.504402,0.582733
1413393238005760512,-4.01939,3.35952,3.27664,-0.0592384,0.835827,0.0330292,0.544787,0.164274,0.0691543,-0.0543086,-0.00444976,0.0183637,0.0592215,0.142781,0.501717,0.584779
1413393238055760384,-4.01052,3.36297,3.27399,-0.0525033,0.83792,0.0386594,0.541884,0.185602,0.0691166,-0.0395103,-0.0044626,0.018327,0.0592381,0.144769,0.499857,0.58643
1413393238105760512,-4.00071,3.36583,3.27156,-0.0475485,0.840023,0.0424296,0.538795,0.20307,0.0694354,-0.0374933,-0.004458,0.0183699,0.0592685,0.140015,0.503752,0.594226
1413393238155760384,-3.99018,3.36936,3.27087,-0.04257,0.840513,0.0448705,0.53825,0.22362,0.0780304,-0.0108114,-0.0044582,0.0183285,0.0592883,0.146247,0.504513,0.594613
1413393238205760512,-3.9775,3.37391,3.27015,-0.0388684,0.841207,0.0463635,0.537317,0.250536,0.102184,-0.00178729,-0.0044723,0.0183084,0.0592806,0.145846,0.511617,0.60304
1413393238255760384,-3.94745,3.35705,3.26098,-0.0568875,0.843468,0.0508293,0.531735,0.246571,0.12255,0.0529448,-0.00546685,0.0177832,0.0588762,0.192778,0.818529,0.674914
1413393238305760512,-3.93336,3.36364,3.26447,-0.0543106,0.844075,0.0501215,0.531108,0.283799,0.137383,0.126456,-0.00547599,0.0177928,0.0589144,0.201361,0.822557,0.676789
1413393238355760384,-3.91832,3.37116,3.27242,-0.0535428,0.844702,0.0489226,0.5303,0.307474,0.173112,0.168193,-0.00549106,0.0177589,0.0589339,0.209101,0.822283,0.678447
1413393238405760512,-3.9016,3.38013,3.28278,-0.0534899,0.844498,0.0470559,0.5308,0.344068,0.192683,0.234228,-0.00550113,0.0177388,0.058938,0.214311,0.826671,0.679995
1413393238455760384,-3.88405,3.38992,3.29575,-0.0564696,0.843557,0.0428794,0.532338,0.360682,0.21296,0.251701,-0.00550111,0.0177603,0.058991,0.212894,0.827135,0.675581
1413393238505760512,-3.86552,3.40088,3.30688,-0.0626093,0.842801,0.0361893,0.533346,0.376766,0.238351,0.211046,-0.00549537,0.0177329,0.058997,0.215389,0.831894,0.682579
1413393238555760384,-3.84638,3.4132,3.31594,-0.0702638,0.840813,0.0280802,0.536011,0.379046,0.253973,0.157614,-0.00551973,0.0177544,0.0590319,0.210368,0.82995,0.679488
1413393238605760512,-3.8268,3.42581,3.32241,-0.0787822,0.838903,0.019749,0.538188,0.394367,0.244018,0.104757,-0.00551691,0.0177733,0.0590533,0.209323,0.832473,0.682816
1413393238655760384,-3.80679,3.43718,3.32666,-0.0865523,0.83775,0.0119749,0.539018,0.401855,0.232038,0.0642421,-0.00551766,0.0178106,0.0590935,0.209922,0.834596,0.680005
1413393238705760512,-3.78661,3.44882,3.32813,-0.0923375,0.836796,0.00603772,0.539639,0.410506,0.219995,-0.00372739,-0.00552477,0.0178222,0.0590983,0.211391,0.833386,0.684822
1413393238755760384,-3.76555,3.4589,3.32687,-0.0965852,0.836044,0.00136608,0.540092,0.420551,0.182014,-0.0500535,-0.00552593,0.0178197,0.0591289,0.212736,0.833742,0.685465
1413393238805760512,-3.74432,3.46683,3.32383,-0.0975906,0.835272,-0.000625687,0.541106,0.422903,0.143798,-0.0701746,-0.00552252,0.0178351,0.0591511,0.213495,0.833667,0.685682
1413393238855760384,-3.7231,3.47263,3.32016,-0.0954439,0.83508,-2.58066e-05,0.541786,0.429377,0.0935192,-0.065019,-0.00550881,0.0178415,0.0591733,0.215791,0.837762,0.687892
1413393238905760512,-3.70132,3.47612,3.31661,-0.090567,0.835077,0.00258122,0.542621,0.450043,0.0483402,-0.0508994,-0.00551189,0.0178747,0.0592114,0.215821,0.836166,0.686287
1413393238955760384,-3.67873,3.47726,3.31504,-0.0825145,0.835403,0.00826497,0.543346,0.447794,0.00481686,-0.0304931,-0.00550271,0.0178776,0.0592414,0.217223,0.837225,0.687922
1413393239005760512,-3.65617,3.47658,3.31419,-0.073604,0.835298,0.0140845,0.544667,0.45027,-0.0218393,-0.0150891,-0.00550042,0.0178578,0.0592816,0.219215,0.840195,0.689571
1413393239055760384,-3.63358,3.47583,3.31278,-0.0659042,0.835602,0.019928,0.545004,0.450631,0.00267826,-0.0213892,-0.00551206,0.0178661,0.0593152,0.218645,0.839441,0.692354
1413393239105760512,-3.61125,3.47571,3.31138,-0.0594911,0.835551,0.0241877,0.545647,0.449352,-0.00200188,-0.0363685,-0.00550338,0.0178818,0.05933,0.220642,0.840957,0.694287
1413393239155760384,-3.58862,3.47644,3.30983,-0.0547612,0.835402,0.0269326,0.546241,0.459516,0.0190437,-0.0133358,-0.00550219,0.0178872,0.0593644,0.22317,0.840027,0.69075
1413393239205760512,-3.5654,3.478,3.30859,-0.050899,0.835797,0.0300532,0.545848,0.463202,0.039876,-0.0250878,-0.00551611,0.0178766,0.0593747,0.222777,0.839316,0.699528
1413393239255760384,-3.54235,3.47949,3.30793,-0.0490657,0.835513,0.0306121,0.546419,0.459585,0.0311497,-0.0146206,-0.00549431,0.0178916,0.0593958,0.224035,0.841854,0.692739
1413393239305760512,-3.51936,3.48191,3.30749,-0.0466322,0.835815,0.0315613,0.546117,0.469615,0.063745,-0.00516433,-0.00549577,0.0178987,0.0594132,0.2262,0.840364,0.694325
1413393239355760384,-3.49551,3.48577,3.30709,-0.0456757,0.836484,0.032465,0.545119,0.47682,0.0860184,0.00661096,-0.00549409,0.0179257,0.0594289,0.227803,0.840534,0.69295
1413393239405760512,-3.47142,3.49015,3.30748,-0.0450845,0.836809,0.0322924,0.544679,0.479592,0.1029,0.0120451,-0.00548354,0.0179308,0.0594756,0.229797,0.840737,0.69647
1413393239455760384,-3.44738,3.49658,3.30866,-0.045483,0.837479,0.0316066,0.543655,0.472599,0.137284,0.0107827,-0.00548347,0.0179203,0.0594888,0.232102,0.840433,0.695579
1413393239505760512,-3.42354,3.50361,3.31007,-0.0433749,0.837434,0.0333726,0.543792,0.476415,0.143562,0.0324636,-0.0054769,0.0179357,0.059526,0.233515,0.841408,0.695586
1413393239555760384,-3.39989,3.51132,3.31158,-0.0454868,0.837736,0.0315332,0.543264,0.47637,0.168097,0.0350768,-0.00546577,0.0179376,0.059541,0.232933,0.840718,0.697721
1413393239605760512,-3.37586,3.52076,3.31392,-0.0494977,0.838131,0.0292769,0.542429,0.477913,0.210034,0.066543,-0.00547547,0.0179405,0.0595751,0.233806,0.839107,0.697181
1413393239655760384,-3.35211,3.5316,3.31876,-0.0563527,0.838278,0.0242556,0.541781,0.492778,0.211846,0.0989544,-0.00547017,0.0179635,0.0596051,0.232682,0.838178,0.699342
1413393239705760512,-3.32676,3.54212,3.32321,-0.0665597,0.838497,0.016557,0.540572,0.5028,0.201838,0.0905463,-0.00545827,0.0179678,0.0596291,0.234255,0.839955,0.700435
1413393239755760384,-3.3016,3.55197,3.32758,-0.074988,0.838305,0.0107961,0.539913,0.511422,0.196659,0.0748025,-0.00544392,0.01797,0.0596596,0.236418,0.842259,0.700895
1413393239805760512,-3.2756,3.5609,3.3313,-0.0802864,0.838335,0.00703628,0.539165,0.530047,0.164516,0.0694307,-0.0054399,0.0179681,0.0596899,0.239353,0.839861,0.701227
1413393239855760384,-3.24891,3.5689,3.33398,-0.0828243,0.839272,0.00492551,0.537345,0.531072,0.152438,0.0443247,-0.00543143,0.0180009,0.0596972,0.236302,0.841088,0.701091
1413393239905760512,-3.22215,3.57603,3.33681,-0.0808591,0.8399,0.00654211,0.536645,0.541594,0.132014,0.0540034,-0.00543679,0.0180283,0.0597257,0.237981,0.842393,0.701877
1413393239955760384,-3.19471,3.58216,3.33894,-0.0793,0.839945,0.00759325,0.536792,0.561541,0.10504,0.0464802,-0.00544547,0.0180284,0.0597404,0.2393,0.839441,0.701175
1413393240005760512,-3.16609,3.58666,3.34029,-0.0754284,0.839048,0.0104105,0.538703,0.571993,0.085683,0.0350205,-0.00544482,0.0180486,0.0597651,0.238879,0.841537,0.701452
1413393240055760384,-3.13759,3.5907,3.34243,-0.070668,0.838181,0.0142385,0.540607,0.573517,0.0691078,0.0448348,-0.00544612,0.0180598,0.059791,0.238122,0.84315,0.700661
1413393240105760512,-3.10863,3.59378,3.34496,-0.0638917,0.83654,0.0194026,0.543822,0.578581,0.0511311,0.0556758,-0.0054256,0.0180645,0.059829,0.237528,0.844572,0.703209
1413393240155760384,-3.07973,3.59676,3.34703,-0.0581513,0.83524,0.0242948,0.546263,0.570912,0.0637802,0.0396003,-0.00542457,0.0180663,0.0598656,0.236389,0.845082,0.703924
1413393240205760512,-3.05189,3.6001,3.34901,-0.0543881,0.834156,0.0279992,0.548125,0.557174,0.0736742,0.00491251,-0.00542177,0.0180634,0.0598821,0.235881,0.846345,0.707066
1413393240255760384,-3.02368,3.60384,3.3477,-0.0516579,0.834319,0.030863,0.547989,0.552499,0.101563,-0.0520742,-0.00542132,0.018075,0.0599063,0.236487,0.846013,0.707923
1413393240305760512,-2.99651,3.61032,3.34348,-0.0525369,0.834333,0.0302758,0.547916,0.544062,0.132497,-0.108121,-0.00541625,0.0180544,0.0599287,0.237681,0.848115,0.708771
1413393240355760384,-2.96926,3.61682,3.33673,-0.0543724,0.834197,0.0293048,0.547997,0.544795,0.146874,-0.167245,-0.00541075,0.0180674,0.0599622,0.2376,0.847375,0.709392
1413393240405760512,-2.94165,3.62486,3.32674,-0.0588534,0.833994,0.0257339,0.548022,0.55944,0.156019,-0.207907,-0.00540121,0.0180853,0.0600119,0.238711,0.84782,0.711556
1413393240455760384,-2.91377,3.63223,3.31555,-0.0630178,0.833351,0.0229131,0.548662,0.552626,0.148784,-0.242203,-0.00539878,0.0181023,0.06004,0.239834,0.848513,0.714707
1413393240505760512,-2.88672,3.63955,3.30299,-0.0689761,0.833165,0.0183713,0.548398,0.529049,0.149649,-0.24651,-0.00538655,0.0180999,0.0600591,0.239844,0.849374,0.714487
1413393240555760384,-2.86069,3.64706,3.29191,-0.073185,0.832662,0.0148428,0.548724,0.519041,0.139847,-0.210736,-0.00540835,0.0181205,0.0600753,0.239114,0.848232,0.716373
1413393240605760512,-2.83467,3.65337,3.28287,-0.0766233,0.832333,0.0118109,0.548828,0.497827,0.118077,-0.157706,-0.0054053,0.0181304,0.060104,0.239466,0.849589,0.718448
1413393240655760384,-2.80921,3.65875,3.2773,-0.0774738,0.832422,0.0102156,0.548605,0.51767,0.0968749,-0.0966008,-0.00540537,0.0181342,0.0601206,0.239507,0.84941,0.718715
1413393240705760512,-2.78273,3.66286,3.27598,-0.07639,0.832747,0.0096293,0.548274,0.543323,0.0644271,0.0235042,-0.00544867,0.0181449,0.0601186,0.236353,0.846443,0.714795
1413393240755760384,-2.75576,3.66553,3.27881,-0.0725389,0.831976,0.0108636,0.549941,0.53736,0.0534311,0.0546765,-0.00545533,0.0181487,0.0601288,0.23524,0.845119,0.710965
1413393240805760512,-2.72888,3.66806,3.28154,-0.0684386,0.830444,0.0120613,0.552751,0.544131,0.051715,0.0670906,-0.0054578,0.0181586,0.0601532,0.230683,0.84557,0.711571
1413393240855760384,-2.70224,3.67122,3.28393,-0.0630836,0.828847,0.0143149,0.555723,0.550717,0.0547524,0.0443033,-0.00548542,0.0181849,0.0601732,0.226211,0.846009,0.713397
1413393240905760512,-2.67402,3.67337,3.28483,-0.0599217,0.826338,0.0149242,0.559779,0.53678,0.0426011,0.00824914,-0.00546718,0.0181862,0.0602089,0.226501,0.849575,0.710995
1413393240955760384,-2.64877,3.676,3.28416,-0.0569216,0.823847,0.014722,0.563755,0.492981,0.0492404,-0.0333985,-0.00545488,0.0182134,0.0602413,0.222742,0.853921,0.711233
1413393241005760512,-2.62437,3.67877,3.28154,-0.0547161,0.821495,0.0146019,0.567396,0.483667,0.0626026,-0.0749254,-0.00544574,0.0182232,0.060275,0.2235,0.856796,0.709121
1413393241055760384,-2.60047,3.68215,3.27647,-0.0544531,0.819586,0.0127687,0.57022,0.467987,0.0626705,-0.129196,-0.0054405,0.0182347,0.0603042,0.224421,0.856223,0.708738
1413393241105760512,-2.57763,3.68572,3.26784,-0.0568817,0.819119,0.00923053,0.570722,0.433588,0.0680989,-0.201396,-0.00544406,0.0182486,0.0603206,0.223154,0.85748,0.708587
1413393241155760384,-2.55724,3.68868,3.25655,-0.0613486,0.819184,0.00391234,0.570226,0.396397,0.0616059,-0.258957,-0.00542839,0.0182617,0.0603572,0.221678,0.861143,0.707633
1413393241205760512,-2.53766,3.69176,3.24293,-0.0659069,0.819926,-0.000804519,0.568662,0.382723,0.0628418,-0.282823,-0.00543296,0.0182864,0.0603735,0.221435,0.861273,0.705138
1413393241255760384,-2.51905,3.69459,3.22887,-0.069683,0.821191,-0.00532443,0.566358,0.359807,0.0575447,-0.287281,-0.00542185,0.0182883,0.0604086,0.22101,0.864119,0.703465
1413393241305760512,-2.50159,3.69755,3.21506,-0.0721342,0.82352,-0.00883938,0.562614,0.35409,0.0338159,-0.273577,-0.00541424,0.0182878,0.0604257,0.221421,0.863887,0.701468
1413393241355760384,-2.48388,3.69837,3.20077,-0.0715308,0.828598,-0.00977996,0.55517,0.343152,0.0122086,-0.269485,-0.00541161,0.0183082,0.0604564,0.220647,0.86602,0.7026
1413393241405760512,-2.46663,3.69851,3.18781,-0.0712729,0.832096,-0.0108967,0.549925,0.332187,-0.0121599,-0.250972,-0.00540931,0.0183178,0.0604688,0.219041,0.867474,0.699474
1413393241455760384,-2.4502,3.69739,3.17651,-0.0681397,0.834618,-0.0100589,0.546506,0.324796,-0.0422891,-0.210219,-0.0054001,0.0183141,0.0605091,0.217541,0.870284,0.69833
1413393241505760512,-2.43412,3.69491,3.16683,-0.0635587,0.835805,-0.00722561,0.545287,0.325634,-0.0487428,-0.179831,-0.00539875,0.0183216,0.0605359,0.217803,0.872198,0.695151
1413393241555760384,-2.41752,3.69216,3.15747,-0.058583,0.835281,-0.00448565,0.546675,0.342755,-0.0662791,-0.184259,-0.0053954,0.0183349,0.0605716,0.216884,0.872635,0.694093
1413393241605760512,-2.39983,3.68896,3.1485,-0.0529788,0.833692,-0.00107246,0.549682,0.341352,-0.0648825,-0.17832,-0.0053904,0.0183539,0.0605948,0.216694,0.874964,0.690724
1413393241655760384,-2.38348,3.68577,3.1404,-0.0490937,0.832485,0.00196113,0.551865,0.341046,-0.0513737,-0.164932,-0.00539091,0.0183333,0.0606214,0.215388,0.876919,0.690513
1413393241705760512,-2.36577,3.68336,3.13195,-0.0447742,0.831123,0.00504808,0.554261,0.349713,-0.0521739,-0.175797,-0.00538775,0.0183614,0.0606459,0.2144,0.879172,0.687602
1413393241755760384,-2.34829,3.68083,3.123,-0.0427653,0.830848,0.00633208,0.554817,0.349872,-0.0479099,-0.166982,-0.00538972,0.018367,0.0606721,0.213467,0.881609,0.685285
1413393241805760512,-2.33076,3.6789,3.11466,-0.0408458,0.83155,0.00846895,0.553882,0.33751,-0.0262992,-0.167507,-0.00538361,0.0183811,0.0607003,0.211904,0.88344,0.684498
1413393241855760384,-2.31409,3.67779,3.10661,-0.0397918,0.832038,0.0102803,0.553194,0.334465,-0.014117,-0.161097,-0.00539142,0.0183775,0.0607328,0.211212,0.884468,0.682546
1413393241905760512,-2.29742,3.67786,3.09968,-0.0393706,0.831093,0.0108782,0.554632,0.332065,0.00666654,-0.119985,-0.00539537,0.0183851,0.0607565,0.209888,0.88583,0.680183
1413393241955760384,-2.28105,3.67903,3.09365,-0.0391614,0.828836,0.0127247,0.557974,0.318413,0.0306964,-0.115838,-0.00538929,0.0183925,0.060778,0.208001,0.886922,0.679101
1413393242005760512,-2.26547,3.68064,3.0877,-0.039921,0.827149,0.0134327,0.560402,0.311676,0.0317766,-0.110024,-0.00540387,0.0183992,0.0607995,0.20898,0.890121,0.676694
1413393242055760384,-2.25024,3.68281,3.08306,-0.0405091,0.824357,0.0146361,0.56443,0.293892,0.0611893,-0.0753768,-0.00538743,0.0183981,0.0608337,0.206222,0.893707,0.670098
1413393242105760512,-2.23621,3.68612,3.07965,-0.0411939,0.821977,0.0162114,0.567798,0.269179,0.0813376,-0.0621727,-0.00538505,0.0184062,0.0608646,0.20307,0.894905,0.666867
1413393242155760384,-2.22359,3.69074,3.07676,-0.0438441,0.818547,0.0151666,0.572563,0.246572,0.0888063,-0.0564862,-0.005401,0.018417,0.0608882,0.202118,0.891658,0.661259
1413393242205760512,-2.21199,3.69576,3.07438,-0.0475747,0.814701,0.0137091,0.577764,0.212565,0.108373,-0.0413922,-0.00539727,0.0184164,0.060921,0.201129,0.897141,0.657888
1413393242255760384,-2.20219,3.70059,3.07241,-0.0498121,0.812159,0.0134333,0.581151,0.185662,0.101502,-0.0289379,-0.00539401,0.0184128,0.0609489,0.199902,0.901762,0.654299
1413393242305760512,-2.19348,3.70598,3.07154,-0.0523456,0.811177,0.01191,0.582332,0.155986,0.103103,-0.0267344,-0.00539245,0.0184271,0.0609642,0.194139,0.904025,0.648875
1413393242355760384,-2.18643,3.71169,3.06965,-0.0562229,0.812207,0.0101336,0.580566,0.129081,0.113564,-0.0448079,-0.00539474,0.018441,0.0609883,0.188816,0.906705,0.645617
1413393242405760512,-2.18082,3.71675,3.06777,-0.0617713,0.815234,0.00715542,0.575783,0.100236,0.108519,-0.0389734,-0.00537641,0.0184513,0.0610219,0.185861,0.913633,0.644231
1413393242455760384,-2.1762,3.72232,3.06591,-0.0678153,0.82006,0.00355906,0.568234,0.0807196,0.11035,-0.0339384,-0.00536722,0.0184597,0.0610445,0.186308,0.915194,0.641406
1413393242505760512,-2.17259,3.72762,3.06421,-0.0744148,0.825783,-0.000555857,0.559057,0.0571722,0.0997564,-0.0391166,-0.00535711,0.0184623,0.0610797,0.189102,0.919789,0.640496
1413393242555760384,-2.16992,3.73177,3.06306,-0.0791865,0.83081,-0.00322718,0.550885,0.0531555,0.0719855,-0.00218201,-0.00534557,0.0184755,0.061106,0.187875,0.921366,0.637193
1413393242605760512,-2.16732,3.73481,3.0633,-0.0826282,0.834747,-0.00531153,0.544373,0.052254,0.0395146,0.0138186,-0.00534331,0.0184748,0.0611257,0.187109,0.924142,0.633468
1413393242655760384,-2.1644,3.73614,3.06463,-0.0843505,0.837299,-0.00596113,0.540166,0.0682932,0.0183677,0.0351167,-0.00533658,0.0184884,0.0611511,0.18731,0.928835,0.629559
1413393242705760512,-2.16044,3.73601,3.06642,-0.0862294,0.838164,-0.00747445,0.538507,0.0877474,-0.0127326,0.0301321,-0.00533075,0.0185047,0.061163,0.185777,0.930616,0.624784
1413393242755760384,-2.15575,3.73507,3.06841,-0.08988,0.837828,-0.00920804,0.538407,0.106285,-0.032855,0.0548304,-0.00532114,0.0185124,0.0612005,0.185612,0.934668,0.620829
1413393242805760512,-2.14962,3.73228,3.071,-0.0912562,0.837036,-0.00789805,0.539427,0.127145,-0.072126,0.0510885,-0.00531149,0.0185083,0.0612249,0.185363,0.937254,0.615552
1413393242855760384,-2.14285,3.72799,3.07376,-0.0909419,0.836196,-0.00332142,0.540829,0.137716,-0.10229,0.066435,-0.00530456,0.0185093,0.061254,0.183809,0.940764,0.613559
1413393242905760512,-2.13563,3.72237,3.0772,-0.0860484,0.835337,0.00708337,0.542916,0.152452,-0.113565,0.0571746,-0.00530236,0.018507,0.061277,0.181303,0.942551,0.609733
1413393242955760384,-2.12744,3.71609,3.08051,-0.0826232,0.835816,0.0171987,0.542485,0.164437,-0.147434,0.0770007,-0.00528941,0.0185143,0.061298,0.179623,0.950815,0.604131
1413393243005760512,-2.11893,3.70887,3.08455,-0.0809746,0.836719,0.0280011,0.540888,0.17265,-0.14077,0.081788,-0.00529018,0.0185228,0.0613264,0.178571,0.952366,0.599374
1413393243055760384,-2.11004,3.7019,3.0888,-0.0815699,0.837064,0.0396973,0.539533,0.186163,-0.144003,0.0716687,-0.005288,0.0185197,0.0613567,0.177161,0.955799,0.595223
1413393243105760512,-2.10011,3.69448,3.09291,-0.0842098,0.837521,0.0505753,0.537503,0.221311,-0.159992,0.0886061,-0.00528104,0.0185188,0.0613838,0.174716,0.959508,0.590787
1413393243155760384,-2.08795,3.6868,3.09823,-0.0906089,0.836495,0.0608212,0.536998,0.241478,-0.137539,0.110942,-0.00528374,0.0185496,0.0614028,0.17213,0.96511,0.583303
1413393243205760512,-2.07569,3.68004,3.10426,-0.0978138,0.832936,0.071265,0.539973,0.247749,-0.130086,0.136499,-0.00528729,0.0185441,0.0614267,0.172055,0.971357,0.580496
1413393243255760384,-2.0634,3.67328,3.11144,-0.104113,0.827435,0.0798025,0.546026,0.25021,-0.139618,0.131932,-0.0052749,0.0185394,0.0614645,0.170292,0.977681,0.577977
1413393243305760512,-2.05123,3.66712,3.117,-0.109944,0.821729,0.0877261,0.552248,0.239978,-0.0990224,0.0756894,-0.00527534,0.0185472,0.0614848,0.168901,0.98258,0.571671
1413393243355760384,-2.03917,3.66225,3.11876,-0.116153,0.817218,0.0935484,0.556697,0.233193,-0.0954228,0.0208094,-0.00527255,0.018538,0.0615065,0.16813,0.988366,0.566703
1413393243405760512,-2.02826,3.65803,3.11896,-0.120562,0.812994,0.0981926,0.561127,0.209511,-0.082547,-0.0270934,-0.00526478,0.0185436,0.0615302,0.163826,0.992872,0.560272
1413393243455760384,-2.01842,3.65469,3.11649,-0.124898,0.810077,0.102555,0.563612,0.184389,-0.066617,-0.0620956,-0.0052599,0.0185347,0.0615583,0.16196,0.996661,0.555116
1413393243505760512,-2.00984,3.65104,3.11194,-0.128597,0.807681,0.105879,0.565601,0.157616,-0.0688812,-0.120434,-0.0052651,0.0185525,0.0615773,0.157513,0.99878,0.551529
1413393243555760384,-2.00264,3.64772,3.10469,-0.131938,0.806273,0.108544,0.566334,0.133243,-0.0654018,-0.158413,-0.00527301,0.0185568,0.0615937,0.155645,1.00043,0.547378
1413393243605760512,-1.99662,3.64454,3.09639,-0.133976,0.805637,0.111008,0.566284,0.121781,-0.0631041,-0.167078,-0.00525437,0.0185448,0.0616279,0.154687,1.00404,0.537898
1413393243655760384,-1.9912,3.64126,3.08763,-0.135217,0.805565,0.113207,0.565655,0.0972567,-0.0589783,-0.176798,-0.00524701,0.0185507,0.0616486,0.150837,1.00844,0.533468
1413393243705760512,-1.98749,3.63833,3.0794,-0.135358,0.806379,0.115673,0.56396,0.0738272,-0.0524976,-0.14186,-0.00523202,0.0185459,0.0616903,0.148276,1.01149,0.525827
1413393243755760384,-1.98466,3.6354,3.0724,-0.135619,0.807654,0.11725,0.561743,0.0421299,-0.0632805,-0.122307,-0.0052099,0.0185412,0.0617306,0.147765,1.01156,0.520829
1413393243805760512,-1.98365,3.63188,3.06736,-0.134965,0.808903,0.119016,0.559729,0.0245061,-0.0631559,-0.08396,-0.00520611,0.0185557,0.0617651,0.145308,1.01254,0.51756
1413393243855760384,-1.98239,3.62913,3.06384,-0.136134,0.809485,0.119243,0.558554,0.0107672,-0.0504963,-0.0708266,-0.00519494,0.0185661,0.0618048,0.143156,1.01253,0.512798
1413393243905760512,-1.98281,3.62627,3.06115,-0.135457,0.80975,0.120123,0.558145,-0.00395159,-0.0551588,-0.0378653,-0.00517651,0.0185708,0.0618263,0.142927,1.01242,0.508714
1413393243955760384,-1.98353,3.62361,3.05934,-0.135295,0.809716,0.120601,0.558132,-0.021512,-0.0535525,-0.0280597,-0.0051645,0.0185811,0.0618519,0.141523,1.0119,0.507722
1413393244005760512,-1.98538,3.62069,3.05816,-0.134922,0.810002,0.121071,0.557706,-0.0306078,-0.0468634,-0.0238315,-0.00514885,0.0185973,0.0618641,0.141129,1.01103,0.503052
1413393244055760384,-1.98716,3.61832,3.05784,-0.133404,0.809729,0.121709,0.558327,-0.0427133,-0.0412441,-0.000623619,-0.00511877,0.0186362,0.0618898,0.139433,1.01049,0.501875
1413393244105760512,-1.99028,3.61599,3.05832,-0.132186,0.810017,0.122324,0.558065,-0.0605168,-0.0316069,0.025905,-0.00511341,0.0186511,0.0619179,0.139986,1.00505,0.501079
1413393244155760384,-1.99392,3.61455,3.05924,-0.131474,0.810136,0.123602,0.557779,-0.0817787,-0.0157834,0.00964763,-0.00508124,0.0186677,0.0619375,0.137249,1.00747,0.496238
1413393244205760512,-1.99871,3.61406,3.06004,-0.133197,0.809697,0.12557,0.557567,-0.0984093,0.00788077,0.0177696,-0.00504646,0.0186932,0.061961,0.135468,1.00794,0.493708
1413393244255760384,-2.00447,3.61393,3.06133,-0.13513,0.809413,0.129779,0.556551,-0.116408,0.0152028,0.0260707,-0.00503055,0.0187041,0.0619732,0.133566,1.00419,0.487565
1413393244305760512,-2.01108,3.61446,3.06246,-0.137877,0.808959,0.135257,0.55523,-0.130667,0.029085,0.0421661,-0.00500554,0.0187054,0.0619852,0.133197,1.00521,0.487332
1413393244355760384,-2.0181,3.61602,3.06385,-0.142463,0.808147,0.141653,0.553658,-0.14392,0.0539658,0.0307967,-0.0049969,0.0187149,0.0620064,0.13277,1.00679,0.483915
1413393244405760512,-2.02547,3.61828,3.06445,-0.147496,0.806211,0.146561,0.553885,-0.153011,0.0496006,-0.0146529,-0.00499053,0.0187054,0.062026,0.131979,1.01039,0.478971
1413393244455760384,-2.0342,3.62078,3.06265,-0.153271,0.803875,0.149973,0.554799,-0.173047,0.0699408,-0.0571192,-0.00498153,0.0187222,0.0620519,0.128053,1.0131,0.47871
1413393244505760512,-2.04319,3.62494,3.05818,-0.158911,0.802349,0.152938,0.554611,-0.184265,0.072024,-0.113026,-0.00497695,0.0187305,0.0620722,0.127993,1.01463,0.470851
1413393244555760384,-2.05275,3.62749,3.05058,-0.164254,0.800695,0.154851,0.554914,-0.187981,0.0400939,-0.181979,-0.00497271,0.0187339,0.0620985,0.125697,1.01798,0.465278
1413393244605760512,-2.0618,3.62939,3.0403,-0.168983,0.800201,0.157053,0.553586,-0.195609,0.0520378,-0.214826,-0.00497253,0.0187485,0.0621198,0.123509,1.02231,0.462785
1413393244655760384,-2.07212,3.63214,3.0303,-0.17323,0.799884,0.158824,0.552224,-0.201467,0.0576698,-0.17974,-0.00496307,0.0187372,0.0621508,0.12131,1.02863,0.457227
1413393244705760512,-2.083,3.63458,3.02404,-0.176496,0.79868,0.160516,0.552444,-0.228189,0.0358816,-0.0943504,-0.00496057,0.0187564,0.0621743,0.119898,1.03144,0.454295
1413393244755760384,-2.0946,3.63636,3.0196,-0.181399,0.799238,0.159921,0.550216,-0.2342,0.0267495,-0.0637428,-0.00496243,0.0187475,0.0621814,0.122025,1.03329,0.445911
1413393244805760512,-2.10619,3.63742,3.01879,-0.18657,0.799172,0.158435,0.549012,-0.233305,0.0216405,0.00773746,-0.00497035,0.0187555,0.0622159,0.121885,1.0356,0.444458
1413393244855760384,-2.1183,3.63818,3.02114,-0.18999,0.799889,0.157642,0.547019,-0.248563,0.00530568,0.0813557,-0.00496331,0.0187702,0.0622305,0.12076,1.03876,0.438723
1413393244905760512,-2.1297,3.63824,3.02672,-0.192412,0.799837,0.156398,0.546607,-0.225744,-0.0197861,0.159364,-0.00496259,0.0187635,0.0622704,0.122768,1.0406,0.435893
1413393244955760384,-2.14151,3.63638,3.03671,-0.192765,0.799608,0.156452,0.546801,-0.236328,-0.0521046,0.227974,-0.00496088,0.0187737,0.0623049,0.122781,1.04297,0.431881
1413393245005760512,-2.15326,3.63321,3.04681,-0.190108,0.800822,0.158585,0.545339,-0.233492,-0.0726074,0.212077,-0.00495366,0.0187799,0.0623296,0.122558,1.04465,0.429387
1413393245055760384,-2.16516,3.6293,3.05653,-0.187751,0.803029,0.159665,0.542588,-0.242483,-0.0782877,0.174876,-0.00495066,0.0187721,0.0623528,0.123405,1.04434,0.426813
1413393245105760512,-2.17741,3.62549,3.06399,-0.184731,0.805462,0.161651,0.539421,-0.24234,-0.073132,0.119556,-0.00494855,0.0187619,0.0623737,0.124628,1.04628,0.422712
1413393245155760384,-2.18894,3.62175,3.06892,-0.182663,0.80845,0.162343,0.535432,-0.231437,-0.072053,0.0677404,-0.00494093,0.0187648,0.0623905,0.123472,1.04766,0.420161
1413393245205760512,-2.20038,3.61846,3.07099,-0.180253,0.811375,0.163328,0.531511,-0.227743,-0.0742792,0.0192696,-0.00492681,0.0187575,0.0624259,0.122067,1.0465,0.415588
1413393245255760384,-2.2117,3.61456,3.07044,-0.177827,0.812523,0.164643,0.530168,-0.22531,-0.0887194,-0.0336394,-0.00492769,0.0187518,0.0624433,0.120606,1.04915,0.415122
1413393245305760512,-2.22272,3.61013,3.06742,-0.175656,0.813207,0.165795,0.529482,-0.214356,-0.0911765,-0.0816793,-0.0049382,0.018762,0.062465,0.119715,1.04665,0.410964
1413393245355760384,-2.23294,3.605,3.06263,-0.173564,0.812649,0.167286,0.53056,-0.211357,-0.0613345,-0.122372,-0.00493059,0.0187643,0.0624827,0.120086,1.04781,0.407663
1413393245405760512,-2.24373,3.60336,3.05534,-0.17147,0.81183,0.168048,0.53225,-0.187497,-0.047108,-0.162668,-0.00492267,0.0187559,0.0625033,0.118921,1.04953,0.403762
1413393245455760384,-2.2526,3.60099,3.04608,-0.169229,0.810451,0.169171,0.534708,-0.194646,-0.0519124,-0.200404,-0.00494127,0.0187884,0.0625422,0.117582,1.04613,0.402185
1413393245505760512,-2.26305,3.59819,3.03537,-0.167477,0.80904,0.170154,0.537079,-0.189845,-0.0457714,-0.224123,-0.00491694,0.0188102,0.0625961,0.121735,1.05075,0.398463
1413393245555760384,-2.27159,3.5955,3.02362,-0.165841,0.807304,0.170703,0.540017,-0.171757,-0.0386661,-0.221154,-0.00493603,0.0188031,0.0625792,0.126188,1.04956,0.403036
1413393245605760512,-2.2784,3.59249,3.00802,-0.164746,0.806962,0.170763,0.540843,-0.181832,-0.0206999,-0.215375,-0.00495599,0.018877,0.0625458,0.138554,1.07425,0.437419
1413393245655760384,-2.30461,3.60468,3.02865,-0.159901,0.794789,0.170448,0.56008,-0.190614,-0.00915298,-0.209468,-0.00471699,0.0182321,0.0630713,-0.00624785,0.946793,0.103062
1413393245705760512,-2.29835,3.5924,3.00241,-0.161308,0.802923,0.169325,0.548291,-0.191735,-0.000965273,-0.186944,-0.00492582,0.0187237,0.0625941,0.107335,1.09612,0.360266
1413393245755760384,-2.30806,3.59274,2.9939,-0.15884,0.803603,0.168933,0.548137,-0.20124,0.0108594,-0.180265,-0.00489703,0.0187333,0.0626159,0.108385,1.0917,0.363588
1413393245805760512,-2.31829,3.59366,2.98553,-0.157378,0.804585,0.167499,0.547558,-0.204906,0.0286193,-0.161045,-0.00487975,0.0187508,0.0626406,0.105962,1.08909,0.362397
1413393245855760384,-2.32833,3.59559,2.9785,-0.157913,0.805401,0.164609,0.547081,-0.207638,0.0364706,-0.1329,-0.00488084,0.0187738,0.0626686,0.106318,1.08468,0.359491
1413393245905760512,-2.33899,3.59763,2.97201,-0.159331,0.807241,0.161177,0.544975,-0.212752,0.0321873,-0.128921,-0.00487025,0.0187717,0.0626836,0.103474,1.08407,0.357999
1413393245955760384,-2.34973,3.59922,2.96669,-0.162753,0.809166,0.156763,0.54239,-0.218035,0.0315516,-0.118691,-0.00486307,0.0187672,0.0627044,0.0986585,1.08468,0.353847
1413393246005760512,-2.36064,3.60055,2.96087,-0.167688,0.812057,0.151447,0.53806,-0.211226,0.0354151,-0.121347,-0.00488302,0.0187749,0.0627307,0.0925383,1.08146,0.348564
1413393246055760384,-2.37035,3.60215,2.95466,-0.173035,0.814788,0.145851,0.533767,-0.19355,0.0357797,-0.114839,-0.00486769,0.0187828,0.0627381,0.0907299,1.08437,0.346767
1413393246105760512,-2.37996,3.60402,2.94928,-0.176937,0.817911,0.140998,0.528994,-0.174551,0.03783,-0.11459,-0.00487207,0.018783,0.062771,0.0890085,1.08412,0.346655
1413393246155760384,-2.38772,3.60611,2.9438,-0.180846,0.819549,0.137774,0.525978,-0.147197,0.036707,-0.10102,-0.00486993,0.0187888,0.0627891,0.0898161,1.08726,0.341862
1413393246205760512,-2.39442,3.60737,2.93893,-0.183411,0.818873,0.138338,0.525995,-0.120433,0.0128291,-0.0919681,-0.00486374,0.0188036,0.0628034,0.089419,1.08499,0.340524
1413393246255760384,-2.40008,3.60757,2.93461,-0.184275,0.816814,0.142683,0.52773,-0.0948345,-0.000969162,-0.0878039,-0.00485592,0.018814,0.062835,0.0872593,1.08979,0.332999
1413393246305760512,-2.40392,3.60742,2.93069,-0.182999,0.813065,0.151459,0.531504,-0.0721638,0.00211748,-0.0710031,-0.00485721,0.0188425,0.0628532,0.0843565,1.08795,0.331301
1413393246355760384,-2.40763,3.60721,2.92691,-0.181627,0.808397,0.161462,0.536131,-0.0659867,-0.00457133,-0.0810502,-0.00485871,0.0188463,0.0628767,0.0848306,1.08731,0.327724
