#timestamp, p_RS_R_x [m], p_RS_R_y [m], p_RS_R_z [m], q_RS_w [], q_RS_x [], q_RS_y [], q_RS_z [], v_RS_R_x [m s^-1], v_RS_R_y [m s^-1], v_RS_R_z [m s^-1], b_w_RS_S_x [rad s^-1], b_w_RS_S_y [rad s^-1], b_w_RS_S_z [rad s^-1], b_a_RS_S_x [m s^-2], b_a_RS_S_y [m s^-2], b_a_RS_S_z [m s^-2]
1413393212255760384,-1.07612,0.492468,1.32994,0.602628,-0.00188113,-0.798012,0.00355984,-0.00182993,0.00436835,0.00183598,-0.00038986,0.00468968,0.0162821,-0.000579652,1.90775e-05,0.000154514
1413393212305760512,-1.07627,0.492476,1.33003,0.60268,-0.00272996,-0.797973,0.00294929,-0.00117028,0.000261094,0.000997288,-0.000393159,0.00475926,0.0165442,-0.00159769,4.93793e-05,0.000434639
1413393212355760384,-1.07685,0.492796,1.33008,0.602616,-0.0156012,-0.79785,-0.00679974,-0.0028346,-0.00167938,0.000577003,-0.00040514,0.00482809,0.0168148,-0.00259355,3.50637e-05,0.000733528
1413393212405760512,-1.06694,0.486523,1.33038,0.602508,-0.0217147,-0.797736,-0.0114207,-0.00252445,0.00110547,0.000404639,-0.000417828,0.004915,0.017088,-0.00325414,-1.44133e-05,0.00120678
1413393212455760384,-1.05265,0.472941,1.33057,0.602339,-0.024231,-0.797758,-0.0135641,-0.00044938,-0.00221296,0.00085265,-0.000414354,0.00498411,0.0173489,-0.0039383,-0.000261112,0.00186892
1413393212505760512,-1.07593,0.493673,1.32888,0.602714,-0.0134072,-0.797828,-0.00523261,-0.00175544,-0.00356434,0.000761802,-0.000424684,0.00506903,0.0175979,-0.0059656,-8.37331e-05,0.00125165
1413393212555760384,-1.06228,0.47562,1.33034,0.60228,-0.0265609,-0.7977,-0.0151369,-0.00236295,-0.00569857,-0.00220063,-0.000431955,0.0051394,0.0178637,-0.00546881,0.000100167,0.00300926
1413393212605760512,-1.06802,0.479222,1.33035,0.602315,-0.0263634,-0.797685,-0.0148503,-0.00182474,0.00147012,-0.00120481,-0.000447823,0.00521275,0.0181303,-0.00632255,1.36346e-05,0.00338075
1413393212655760384,-1.06207,0.475482,1.3298,0.602323,-0.0233069,-0.797811,-0.0127171,-0.0027907,-0.00161911,-0.000441882,-0.000463774,0.00528641,0.0183889,-0.00740974,-4.73287e-05,0.00416358
1413393212705760512,-1.06708,0.481377,1.32911,0.602452,-0.0183784,-0.797897,-0.00865437,0.000432903,-0.00353114,0.000814443,-0.000456287,0.00535989,0.018618,-0.00852277,-4.29181e-05,0.00433619
1413393212755760384,-1.072,0.488491,1.32978,0.60258,-0.0170211,-0.797835,-0.00818001,0.00047619,0.00129093,0.00196582,-0.000467314,0.0054335,0.0188569,-0.0095715,-0.000997376,0.00313099
1413393212805760512,-1.04908,0.458079,1.33117,0.60206,-0.0367,-0.797264,-0.0234065,-0.000319756,-0.00184067,0.000563784,-0.000447304,0.00551344,0.0191152,-0.0088546,-0.00452572,0.00423504
1413393212855760384,-1.05131,0.459551,1.33056,0.602371,-0.0311624,-0.797365,-0.0196866,0.000431076,0.00185145,0.00148412,-0.000448449,0.00557867,0.0193616,-0.0101773,-0.00772095,0.002309
1413393212905760512,-1.05292,0.461457,1.3305,0.602363,-0.0305474,-0.797408,-0.0191498,-0.00196769,0.0013289,0.000152203,-0.000472768,0.00565099,0.0196081,-0.0107922,-0.00775816,0.00272852
1413393212955760384,-1.05323,0.461702,1.33092,0.602291,-0.0303442,-0.797474,-0.0189744,-0.00328213,-0.00237101,-0.0017558,-0.00047521,0.00572314,0.0198508,-0.0113795,-0.00825209,0.00370435
1413393213005760512,-1.05286,0.461445,1.33088,0.60231,-0.0302818,-0.797462,-0.0190168,-0.00130382,0.000737519,-0.00129259,-0.000454226,0.00579175,0.0200908,-0.0121063,-0.00842977,0.00414925
1413393213055760384,-1.05227,0.46092,1.33085,0.602369,-0.0309161,-0.797385,-0.0193404,-0.00136252,-0.000659855,-0.00194756,-0.000461767,0.0058621,0.0203297,-0.0129218,-0.00902728,0.00444712
1413393213105760512,-1.05911,0.469638,1.32975,0.602294,-0.0265471,-0.797682,-0.0155198,-0.00117686,-0.00134074,-0.00530797,-0.000475372,0.00592239,0.020555,-0.0130324,-0.00470918,0.00754558
1413393213155760384,-1.05817,0.468542,1.32958,0.602262,-0.0266632,-0.7977,-0.015657,-0.00024346,0.000355924,-0.00169957,-0.000465153,0.005973,0.0207872,-0.013484,-0.0048117,0.00811922
1413393213205760512,-1.05698,0.467326,1.32952,0.602291,-0.0272622,-0.797649,-0.0160759,0.000926704,0.0013776,-0.000364391,-0.000458687,0.00606029,0.0210232,-0.0140876,-0.00512213,0.00845499
1413393213255760384,-1.05591,0.466059,1.32963,0.602277,-0.0276681,-0.797637,-0.0165112,0.00222351,0.000606638,0.0025254,-0.000451631,0.00610149,0.0212291,-0.0145232,-0.00515956,0.00799527
1413393213305760512,-1.05424,0.464382,1.32976,0.602253,-0.0286757,-0.797602,-0.0173617,0.00199422,-0.000542514,0.00270674,-0.000458113,0.00617469,0.0214713,-0.0153217,-0.00590396,0.00843512
1413393213355760384,-1.05118,0.459739,1.3298,0.602262,-0.0307616,-0.797488,-0.0186522,0.00412025,0.00402324,0.000779891,-0.00045977,0.00625864,0.021731,-0.0162666,-0.00737805,0.00802446
1413393213405760512,-1.07201,0.490108,1.33013,0.601845,-0.0145725,-0.798465,-0.00495628,0.00363055,0.00411094,0.00326718,-0.000495426,0.00631004,0.0219379,-0.0135927,0.0128329,0.0196468
1413393213455760384,-1.07457,0.494801,1.33132,0.601462,-0.0127531,-0.798793,-0.00317959,0.00154826,0.00032777,0.0016254,-0.000508421,0.00639055,0.0221562,-0.0117681,0.0161835,0.0264776
1413393213505760512,-1.05919,0.475853,1.3314,0.601936,-0.0205617,-0.798218,-0.00991342,-0.00120523,-0.000243597,0.00140953,-0.000503574,0.00645842,0.0223578,-0.0151374,0.00826021,0.0157901
1413393213555760384,-1.07087,0.491951,1.334,0.601587,-0.0143634,-0.798665,-0.00461999,-0.00116186,0.000764051,0.00292231,-0.000511765,0.00653036,0.0225808,-0.0130072,0.0165623,0.0238211
1413393213605760512,-1.07033,0.49113,1.33444,0.601568,-0.0148707,-0.798668,-0.00495984,-0.000542042,0.00139791,0.00180853,-0.000516942,0.00660732,0.0228335,-0.013275,0.0161219,0.0248234
1413393213655760384,-1.0696,0.489978,1.33488,0.601632,-0.0155081,-0.798604,-0.00557458,-0.000900575,-0.000768766,-4.98884e-05,-0.000532317,0.00666524,0.0230049,-0.0135833,0.016116,0.0239474
1413393213705760512,-1.07033,0.490867,1.33484,0.601609,-0.014967,-0.798635,-0.00501997,-0.00103309,-0.00290335,-0.000463849,-0.000547934,0.00673985,0.0232398,-0.0140384,0.0162948,0.0256484
1413393213755760384,-1.0701,0.490328,1.33478,0.60156,-0.0149057,-0.798673,-0.00500879,-0.000245651,-0.00123869,-0.00207918,-0.00054921,0.00678307,0.0234306,-0.0140441,0.0168332,0.0261515
1413393213805760512,-1.06999,0.48993,1.33456,0.601599,-0.0149826,-0.798641,-0.0050961,-0.00041673,-0.000422093,-0.0049234,-0.000554348,0.00682306,0.0236262,-0.0143231,0.0171541,0.0259166
1413393213855760384,-1.06904,0.48855,1.33456,0.601689,-0.0154827,-0.798563,-0.00540997,-0.00103375,-0.00106754,-0.00300536,-0.000580011,0.00690031,0.0238491,-0.0153914,0.0171743,0.0253218
1413393213905760512,-1.06862,0.487963,1.33442,0.60167,-0.0156043,-0.798573,-0.00555167,-0.000284275,-0.0032527,-0.00315109,-0.000540657,0.0069448,0.0240436,-0.0157437,0.0177893,0.024754
1413393213955760384,-1.06905,0.488268,1.33421,0.601568,-0.0152018,-0.79866,-0.00523908,0.000610027,-0.00399554,-0.000370498,-0.000560693,0.00699329,0.0242641,-0.0162141,0.0178729,0.0261898
1413393214005760512,-1.06908,0.488225,1.33428,0.60146,-0.0150224,-0.798746,-0.0050222,0.000783811,0.0096589,0.00303084,-0.000561233,0.00707773,0.0244913,-0.0170368,0.0179772,0.0271224
1413393214055760384,-1.06924,0.488258,1.33405,0.601598,-0.0149597,-0.798643,-0.00508019,0.00197416,0.00609913,0.000972173,-0.000547834,0.00710322,0.0246809,-0.0177126,0.0186186,0.0276914
1413393214105760512,-1.06977,0.4888,1.33401,0.601294,-0.0145578,-0.798881,-0.00474809,-0.000716673,0.00155358,0.00237536,-0.00055911,0.00718237,0.0248665,-0.0173784,0.0184747,0.0285465
1413393214155760384,-1.06942,0.48818,1.33398,0.601516,-0.014864,-0.798707,-0.00505081,0.0019112,-0.000490879,0.00122258,-0.000552427,0.00724351,0.0250687,-0.0178709,0.0182481,0.0281025
1413393214205760512,-1.06933,0.488056,1.33402,0.601401,-0.0147792,-0.798796,-0.00481681,0.000487822,0.00279477,0.000704458,-0.000575892,0.00730572,0.025297,-0.0178006,0.018169,0.0294074
1413393214255760384,-1.06946,0.488374,1.33409,0.601493,-0.0145952,-0.798729,-0.00499019,0.00126562,0.00264433,0.000341945,-0.000566923,0.00735701,0.0254829,-0.0178182,0.0185586,0.0296617
1413393214305760512,-1.06946,0.488613,1.33407,0.601454,-0.0146459,-0.798759,-0.00476762,0.00295426,-0.000480637,-0.00138639,-0.000587016,0.00743461,0.0257147,-0.0182426,0.0186236,0.0308006
1413393214355760384,-1.06879,0.488175,1.33389,0.601525,-0.0146883,-0.798705,-0.00475592,0.00296867,0.00409803,0.000343159,-0.000623687,0.00749168,0.0258677,-0.0187801,0.0189775,0.0306209
1413393214405760512,-1.06854,0.488163,1.33419,0.601531,-0.0148377,-0.798697,-0.00492812,0.00243973,0.00126116,-0.000292167,-0.000629747,0.00758636,0.0260453,-0.0190705,0.0191959,0.0297576
1413393214455760384,-1.06865,0.488317,1.33443,0.601592,-0.0148194,-0.798652,-0.0047433,0.000670466,0.00149252,0.000765048,-0.000658542,0.00757916,0.0262416,-0.01891,0.0198358,0.0299218
1413393214505760512,-1.06865,0.488092,1.33483,0.601564,-0.014942,-0.798669,-0.00504734,-0.00065536,0.00013485,0.00241585,-0.000639698,0.00763504,0.0264387,-0.0191298,0.0200513,0.0300503
1413393214555760384,-1.06866,0.487848,1.33512,0.601606,-0.0152261,-0.798632,-0.0050377,-0.000818982,-0.0014963,0.000866309,-0.000664052,0.00772816,0.0265893,-0.0191107,0.0210833,0.0300124
1413393214605760512,-1.06779,0.487022,1.33696,0.601566,-0.0157779,-0.798648,-0.00565635,-0.00253227,0.000751314,0.000196026,-0.000666121,0.00776133,0.0267937,-0.0192223,0.0207762,0.0306208
1413393214655760384,-1.06609,0.48366,1.33662,0.601502,-0.0169421,-0.798665,-0.00664236,6.48806e-05,-0.00146488,0.00101274,-0.000696212,0.00783015,0.0269534,-0.0192344,0.0175971,0.0333192
1413393214705760512,-1.0631,0.479148,1.33586,0.601366,-0.0182162,-0.79873,-0.00764626,-0.0012307,0.000178575,-0.00210296,-0.000702569,0.00791664,0.0271544,-0.0187291,0.0167791,0.0365458
1413393214755760384,-1.06273,0.476577,1.33394,0.601068,-0.0191184,-0.798925,-0.0085047,7.12384e-05,-0.00118197,-0.00140025,-0.000719248,0.00795416,0.0273163,-0.0170256,0.0153043,0.0430079
1413393214805760512,-1.06384,0.476764,1.33613,0.600571,-0.0202258,-0.799264,-0.0090548,0.000601868,-0.000673336,-0.00143856,-0.000725848,0.00797309,0.0274734,-0.0138123,0.0180523,0.0543835
1413393214855760384,-1.06494,0.473823,1.33151,0.599954,-0.0210695,-0.799699,-0.00965181,-0.0005237,-0.000158536,-0.00194864,-0.000792813,0.00806836,0.0276508,-0.0105266,0.0185539,0.0687317
1413393214905760512,-1.06873,0.477428,1.33422,0.599009,-0.0218429,-0.800381,-0.0100676,-0.000151006,-0.00132309,-0.00181505,-0.000777793,0.00808637,0.0278553,-0.00374327,0.0219158,0.0897717
1413393214955760384,-1.06862,0.476673,1.33691,0.598283,-0.0227402,-0.800894,-0.0105262,-0.000879281,-0.000457855,-0.000941325,-0.000756315,0.00812365,0.028042,0.000776759,0.0252951,0.10511
1413393215005760512,-1.06892,0.474506,1.33693,0.597336,-0.0233446,-0.801577,-0.0109027,-0.00116683,0.000328279,-0.000183876,-0.000769826,0.00818271,0.028184,0.00663583,0.0265471,0.12648
1413393215055760384,-1.07076,0.474671,1.33875,0.596444,-0.0248198,-0.802179,-0.012157,-0.00239673,-0.00314009,0.0018584,-0.000769453,0.00826122,0.0283834,0.0107022,0.0266068,0.142664
1413393215105760512,-1.06915,0.471564,1.33672,0.595766,-0.0264462,-0.802619,-0.0129521,-0.00291332,-0.00860003,-0.00323125,-0.000771924,0.00830935,0.0285686,0.0141806,0.0275539,0.156331
1413393215155760384,-1.07375,0.479933,1.33707,0.595773,-0.0240427,-0.80272,-0.010816,-0.00176058,-0.00321344,-0.00129737,-0.00079654,0.00834282,0.0287502,0.0149086,0.035325,0.160773
1413393215205760512,-1.07149,0.477072,1.33677,0.595606,-0.0260423,-0.802756,-0.0126083,-0.00213788,-0.0039006,-0.00324112,-0.000767153,0.00842335,0.028933,0.0138335,0.0325682,0.160931
1413393215255760384,-1.06824,0.472364,1.33724,0.595593,-0.0277716,-0.802682,-0.0140987,-0.00181707,-0.00334848,-0.0043307,-0.000784367,0.00840914,0.029057,0.013825,0.0283086,0.162152
1413393215305760512,-1.069,0.47221,1.33536,0.595071,-0.0280871,-0.803051,-0.0145117,-0.00289834,-0.00195827,-0.00426708,-0.000807071,0.00849344,0.0292476,0.0164435,0.0264603,0.174017
1413393215355760384,-1.06695,0.468944,1.33505,0.595047,-0.0295408,-0.802994,-0.0157357,-0.00163169,-0.00344199,-0.00453192,-0.000801808,0.00851946,0.0293782,0.0156243,0.0243068,0.174479
1413393215405760512,-1.06793,0.468565,1.33571,0.59437,-0.0298633,-0.803477,-0.0160373,-0.0024481,-0.00115623,-0.00309188,-0.000823066,0.0085783,0.0295775,0.0182261,0.022002,0.18709
1413393215455760384,-1.0665,0.466584,1.33437,0.594356,-0.0305067,-0.803448,-0.016772,-0.00440371,-0.000156349,-0.0007698,-0.00085003,0.00869942,0.0297367,0.0158052,0.0201681,0.183854
1413393215505760512,-1.06784,0.467364,1.33511,0.593924,-0.0301042,-0.803791,-0.0163615,-0.00211914,-0.00120366,-0.00225064,-0.000859417,0.00873727,0.029901,0.0173742,0.0181305,0.192366
1413393215555760384,-1.06811,0.466594,1.33198,0.593418,-0.0303529,-0.804146,-0.01686,-0.00553265,-0.00220959,0.00031163,-0.000896151,0.00878451,0.030031,0.0197908,0.0149139,0.201836
1413393215605760512,-1.06919,0.467021,1.33,0.593083,-0.0300638,-0.804404,-0.0168028,-0.0078261,-0.00372285,0.00349824,-0.000896593,0.00884898,0.0301915,0.0209512,0.0147189,0.209311
1413393215655760384,-1.06801,0.465349,1.33073,0.592995,-0.0310309,-0.804423,-0.0172668,-0.0074043,-0.000226757,0.00388287,-0.000896301,0.00891795,0.0303202,0.0192882,0.0139087,0.206663
1413393215705760512,-1.06503,0.462757,1.3272,0.593082,-0.0319336,-0.804312,-0.0177679,-0.00390349,-0.00296743,-0.00266319,-0.00090243,0.00897532,0.0304552,0.0147322,0.016205,0.191557
1413393215755760384,-1.0628,0.460687,1.32814,0.593047,-0.0326335,-0.804295,-0.0184588,-0.000911773,-2.07538e-05,-0.00433164,-0.000867081,0.00901571,0.0305797,0.0115095,0.0177074,0.180187
1413393215805760512,-1.06099,0.459448,1.32735,0.593002,-0.0330328,-0.804303,-0.018838,0.00252947,-0.00214951,0.0103025,-0.000848961,0.00907004,0.0307329,0.0085214,0.0183152,0.171737
1413393215855760384,-1.0585,0.458075,1.32513,0.593461,-0.0334367,-0.803941,-0.0191053,-0.000266968,0.00145468,0.0077382,-0.000908544,0.00909925,0.0309374,0.00300325,0.019591,0.157327
1413393215905760512,-1.05596,0.456182,1.32198,0.593887,-0.0341104,-0.803591,-0.0193848,-0.000272173,0.000809429,0.00796377,-0.0008772,0.00914462,0.0311183,-0.00118177,0.0221112,0.145477
1413393215955760384,-1.05428,0.455049,1.31979,0.594214,-0.0346969,-0.803329,-0.0192335,0.00461329,0.00388939,0.00630814,-0.000844172,0.00918768,0.031303,-0.0042737,0.0229549,0.137338
1413393216005760512,-1.05238,0.454062,1.32252,0.594708,-0.0347683,-0.802947,-0.0197575,0.010914,0.00373362,0.00766231,-0.000884959,0.00922618,0.0314489,-0.00752736,0.0252072,0.127688
1413393216055760384,-1.05193,0.45382,1.3231,0.594848,-0.0345185,-0.802846,-0.0200825,0.00342963,0.00539664,0.00368042,-0.000807333,0.00926028,0.0316176,-0.00906003,0.0294668,0.125228
1413393216105760512,-1.05029,0.45304,1.323,0.595166,-0.035023,-0.802588,-0.0200674,0.00266208,0.00524922,-0.00662547,-0.000812646,0.00930041,0.0317747,-0.012426,0.03169,0.116739
1413393216155760384,-1.04947,0.453061,1.32426,0.596026,-0.0347458,-0.801961,-0.0201,0.000880617,0.00340891,-0.00300861,-0.00082853,0.00937288,0.0319477,-0.0168942,0.0344922,0.106141
1413393216205760512,-1.04831,0.452064,1.32508,0.596,-0.0349989,-0.801966,-0.0202283,-0.00166751,0.00639641,-0.00535633,-0.000804657,0.00940127,0.0320981,-0.0184134,0.0349176,0.103579
1413393216255760384,-1.04721,0.451223,1.32541,0.595375,-0.0351184,-0.802429,-0.0200875,-0.0103344,0.00609538,0.000478259,-0.0008192,0.00945282,0.0322476,-0.0216906,0.0384071,0.0947407
1413393216305760512,-1.04715,0.450784,1.32555,0.5944,-0.0352962,-0.803149,-0.0198902,-0.00829256,-0.00239461,-0.000760012,-0.000845838,0.009516,0.0324438,-0.0232703,0.0405319,0.0938855
1413393216355760384,-1.04659,0.450156,1.32473,0.594134,-0.0358935,-0.803324,-0.0197077,-0.00040947,0.0024567,-0.00321924,-0.000836239,0.00958856,0.032549,-0.0242716,0.0424735,0.0911916
1413393216405760512,-1.04564,0.4494,1.32322,0.593904,-0.0359508,-0.803492,-0.019657,-0.0019228,-0.0102816,-0.00672617,-0.000826151,0.00963656,0.0326828,-0.0262459,0.0437271,0.0854858
1413393216455760384,-1.04495,0.448039,1.32297,0.594173,-0.0357997,-0.803292,-0.0199668,-0.00622892,-0.00506284,0.0113444,-0.000862874,0.00969602,0.0328475,-0.027898,0.0464137,0.0824733
1413393216505760512,-1.04399,0.44731,1.32104,0.592844,-0.0363791,-0.80424,-0.0203017,0.00225344,0.00492255,0.0119242,-0.000844345,0.00972825,0.0330004,-0.0313395,0.0478467,0.0729083
1413393216555760384,-1.04262,0.446232,1.31962,0.59235,-0.0374523,-0.804526,-0.0213819,0.00123513,0.00923236,-0.020928,-0.00086854,0.0097785,0.0331375,-0.0334379,0.0489564,0.0676055
1413393216605760512,-1.04173,0.446195,1.31856,0.592082,-0.0390414,-0.804655,-0.0211171,0.00229418,0.0194285,-0.0139499,-0.000896072,0.0097923,0.0332959,-0.0346538,0.050098,0.0637263
1413393216655760384,-1.0407,0.445814,1.31963,0.59287,-0.03933,-0.804032,-0.0221623,0.00212028,0.00786091,0.0218876,-0.000827642,0.00982073,0.0334524,-0.0359361,0.0536959,0.0586606
1413393216705760512,-1.03982,0.446031,1.3218,0.593518,-0.0391308,-0.803488,-0.02473,0.0208341,0.0194568,0.0344506,-0.000861591,0.00981435,0.0335159,-0.0358559,0.0550053,0.0580875
1413393216755760384,-1.03799,0.445653,1.32469,0.593651,-0.0390937,-0.803277,-0.0282261,0.0138396,0.017862,0.0468308,-0.000846229,0.00983129,0.0336874,-0.0366067,0.0562889,0.0569224
1413393216805760512,-1.03586,0.445508,1.32525,0.594306,-0.0392596,-0.802679,-0.0310832,0.0181674,0.00699675,0.086312,-0.00084083,0.00989236,0.0338575,-0.0380288,0.0575415,0.0542867
1413393216855760384,-1.03303,0.444831,1.32311,0.595025,-0.0397622,-0.802004,-0.0339762,0.0269715,0.00722391,0.0925236,-0.000817906,0.00989578,0.0339862,-0.0379552,0.0604281,0.0530755
1413393216905760512,-1.03131,0.443523,1.32817,0.596598,-0.0408901,-0.80065,-0.0368564,0.0386097,-0.00748824,0.129085,-0.000817721,0.00996612,0.0341635,-0.0382293,0.0632701,0.0554672
1413393216955760384,-1.02722,0.434567,1.36616,0.596086,-0.0414107,-0.800803,-0.0410207,0.0483251,-0.00984455,0.143904,-0.000789016,0.0100415,0.0343209,-0.0361184,0.0653816,0.0623229
1413393217005760512,-1.03589,0.461704,1.34484,0.598802,-0.0298947,-0.799608,-0.0342042,0.0647344,-0.0180044,0.161961,-0.000871162,0.0100832,0.0344468,-0.0566315,0.0738851,-0.00492719
1413393217055760384,-1.01739,0.426958,1.39045,0.592915,-0.0424519,-0.802914,-0.0444842,0.0667485,-0.0436069,0.226702,-0.000803693,0.0101207,0.03458,-0.0323627,0.0678235,0.0697169
1413393217105760512,-1.01154,0.422857,1.40567,0.591554,-0.0428942,-0.80387,-0.0449144,0.0795397,-0.049334,0.273602,-0.000801776,0.0101257,0.0347026,-0.0293543,0.0680433,0.076314
1413393217155760384,-1.01065,0.426731,1.40125,0.589913,-0.0434443,-0.805079,-0.0443104,0.0848834,-0.0708313,0.275389,-0.000809165,0.0101673,0.0348428,-0.0269465,0.0702349,0.0828438
1413393217205760512,-1.0004,0.417767,1.42557,0.588979,-0.0433352,-0.805773,-0.0442249,0.0933824,-0.0864801,0.260908,-0.000804309,0.0102121,0.0349724,-0.0251439,0.0671563,0.0883278
1413393217255760384,-0.997652,0.414861,1.43853,0.58921,-0.0427202,-0.805588,-0.0451058,0.0963626,-0.0954799,0.240666,-0.000772519,0.0102278,0.035134,-0.0253669,0.0707314,0.0878037
1413393217305760512,-0.990491,0.406828,1.45579,0.589007,-0.0426458,-0.8057,-0.0458186,0.103718,-0.114081,0.200542,-0.000802709,0.0102902,0.0352809,-0.0289099,0.0777752,0.0809701
1413393217355760384,-0.993215,0.407771,1.46472,0.588876,-0.0425867,-0.805825,-0.0453746,0.112511,-0.134318,0.165152,-0.000804148,0.0103012,0.0353916,-0.0346896,0.0854781,0.0654597
1413393217405760512,-0.987375,0.403056,1.46732,0.588337,-0.0422078,-0.806207,-0.0459186,0.127981,-0.143067,0.151914,-0.000806903,0.0103463,0.0355262,-0.0393593,0.0830825,0.0547065
1413393217455760384,-0.976242,0.393115,1.46739,0.588263,-0.0420487,-0.806279,-0.0457542,0.135323,-0.169499,0.136189,-0.000801928,0.01041,0.0356804,-0.0467055,0.0796379,0.036533
1413393217505760512,-0.965459,0.381052,1.48241,0.58834,-0.0413929,-0.806275,-0.045429,0.134039,-0.191912,0.124822,-0.000820127,0.0104283,0.0357871,-0.0505349,0.0908179,0.0250989
1413393217555760384,-0.963168,0.374876,1.49339,0.589416,-0.0406934,-0.805548,-0.0450116,0.154727,-0.193619,0.102702,-0.000837163,0.0104183,0.0358324,-0.0568535,0.0929717,0.00270758
1413393217605760512,-0.955109,0.370072,1.49311,0.590794,-0.037799,-0.804756,-0.0436246,0.153375,-0.225278,0.0862282,-0.000856193,0.010524,0.0360233,-0.0656465,0.0948504,-0.0223694
1413393217655760384,-0.94722,0.359605,1.49643,0.590991,-0.0369891,-0.804682,-0.0429903,0.163361,-0.229198,0.0951319,-0.000847587,0.0105495,0.0361409,-0.0668784,0.0967837,-0.0278352
1413393217705760512,-0.938168,0.346165,1.50072,0.591165,-0.0376906,-0.804479,-0.0437944,0.166679,-0.246596,0.140119,-0.000866837,0.0106037,0.0362897,-0.0679516,0.0949767,-0.0306727
1413393217755760384,-0.92928,0.332772,1.50779,0.591615,-0.0376759,-0.804167,-0.0434543,0.173851,-0.274518,0.187137,-0.000876701,0.0106651,0.0363893,-0.0679872,0.0953644,-0.0334322
1413393217805760512,-0.91985,0.318515,1.51678,0.591653,-0.0378348,-0.804149,-0.0431192,0.184152,-0.279084,0.220555,-0.000857554,0.0106963,0.0365136,-0.0689245,0.0952234,-0.0384343
1413393217855760384,-0.909928,0.303453,1.52876,0.59187,-0.0386598,-0.80398,-0.0425632,0.194836,-0.293124,0.244803,-0.000877487,0.0107424,0.0366709,-0.0691309,0.0962143,-0.0420785
1413393217905760512,-0.900001,0.287691,1.54185,0.592094,-0.0386963,-0.803841,-0.0420374,0.194336,-0.320571,0.281569,-0.000851304,0.0107604,0.0367602,-0.0686962,0.0967581,-0.0478855
1413393217955760384,-0.889908,0.271363,1.55661,0.592831,-0.0389457,-0.803289,-0.0419629,0.204357,-0.323876,0.299047,-0.000852661,0.0108011,0.0369125,-0.0688527,0.0973755,-0.0494578
1413393218005760512,-0.879283,0.254283,1.57083,0.592695,-0.0401092,-0.803395,-0.0407605,0.208403,-0.346189,0.272858,-0.000880134,0.0108334,0.0370408,-0.0691279,0.0971941,-0.0535535
1413393218055760384,-0.868346,0.236051,1.58305,0.593488,-0.0420923,-0.802848,-0.0378959,0.209757,-0.359665,0.216849,-0.000882292,0.0108497,0.0371131,-0.0701177,0.0967149,-0.0581403
1413393218105760512,-0.857332,0.217502,1.59275,0.59335,-0.044861,-0.802945,-0.0346882,0.214687,-0.352162,0.184355,-0.000868821,0.0108624,0.0372214,-0.0716502,0.0963031,-0.0629658
1413393218155760384,-0.846035,0.198806,1.59956,0.593763,-0.0487961,-0.802618,-0.0294736,0.216561,-0.371734,0.130447,-0.00089329,0.0108732,0.0373638,-0.0739505,0.0963712,-0.0661564
1413393218205760512,-0.834292,0.17973,1.60459,0.594552,-0.0525087,-0.802,-0.0233776,0.228362,-0.367209,0.0780867,-0.00090024,0.0109178,0.0374394,-0.0771093,0.0948877,-0.0710667
1413393218255760384,-0.822052,0.161562,1.60776,0.5941,-0.0572444,-0.802163,-0.0174004,0.247581,-0.33549,0.0292619,-0.000885393,0.0109696,0.0375557,-0.0804589,0.0940037,-0.0754294
1413393218305760512,-0.809512,0.144184,1.60856,0.593198,-0.0608073,-0.802656,-0.0127716,0.237303,-0.338024,-0.0059431,-0.000938204,0.0110389,0.037696,-0.083315,0.0944928,-0.0783834
1413393218355760384,-0.797044,0.127678,1.60763,0.593204,-0.060567,-0.802673,-0.0125189,0.244006,-0.313307,-0.0448798,-0.000904657,0.0110359,0.0377871,-0.0857492,0.0931211,-0.0824183
1413393218405760512,-0.784572,0.112303,1.60492,0.593904,-0.0585127,-0.802219,-0.017308,0.248051,-0.279732,-0.0677867,-0.000903255,0.0111052,0.0379113,-0.0879123,0.0923384,-0.0835213
1413393218455760384,-0.771849,0.097443,1.60013,0.593985,-0.0553803,-0.802249,-0.0226264,0.244885,-0.288052,-0.0934442,-0.000941377,0.0111488,0.0380377,-0.0897789,0.091998,-0.0861234
1413393218505760512,-0.758845,0.0830655,1.59325,0.594704,-0.0518347,-0.801781,-0.0280664,0.25292,-0.271413,-0.0838333,-0.000906428,0.0111897,0.0381465,-0.0920388,0.0907512,-0.090013
1413393218555760384,-0.745681,0.0693404,1.58654,0.595073,-0.0490771,-0.801463,-0.0337276,0.264639,-0.252838,-0.0788715,-0.000902188,0.0111989,0.0382512,-0.0935192,0.0903464,-0.0941114
1413393218605760512,-0.73218,0.0554555,1.58136,0.596074,-0.0464694,-0.800714,-0.037342,0.266435,-0.279671,-0.0686834,-0.000923547,0.0112486,0.0383784,-0.0950351,0.0895006,-0.0978945
1413393218655760384,-0.718282,0.0412577,1.5781,0.596823,-0.04467,-0.80014,-0.0398013,0.280211,-0.270829,-0.0668272,-0.000909267,0.0112654,0.0384755,-0.096148,0.0885803,-0.101453
1413393218705760512,-0.70374,0.0270186,1.57444,0.596986,-0.0452907,-0.799959,-0.0402694,0.29017,-0.267707,-0.0512581,-0.000916514,0.0112891,0.0385567,-0.0973264,0.088119,-0.104446
1413393218755760384,-0.688911,0.0122278,1.57162,0.595513,-0.0442305,-0.801071,-0.0411659,0.293028,-0.296731,-0.044895,-0.000950709,0.0113535,0.0386704,-0.0996812,0.0874469,-0.110211
1413393218805760512,-0.673685,-0.00274999,1.56958,0.591513,-0.0451426,-0.804053,-0.0396668,0.306214,-0.285665,-0.0405144,-0.000932121,0.011395,0.0388,-0.100768,0.0880907,-0.114905
1413393218855760384,-0.658315,-0.0180082,1.56773,0.585026,-0.0489729,-0.808743,-0.0357889,0.302371,-0.28541,-0.0313707,-0.00094028,0.0114699,0.0388884,-0.102187,0.087919,-0.1192
1413393218905760512,-0.64351,-0.0332523,1.56742,0.578382,-0.0514118,-0.81352,-0.0318845,0.284362,-0.297304,-0.0305939,-0.000963101,0.0114504,0.038997,-0.102246,0.0898248,-0.122192
1413393218955760384,-0.62962,-0.0479892,1.56471,0.572773,-0.0535172,-0.81745,-0.029029,0.267828,-0.273071,-0.00847255,-0.000933286,0.0114819,0.0390705,-0.102865,0.0915221,-0.125179
1413393219005760512,-0.616795,-0.062349,1.56342,0.569233,-0.0556343,-0.819832,-0.0274672,0.241042,-0.26209,0.00912166,-0.000941937,0.0115347,0.0392022,-0.104204,0.092813,-0.126569
1413393219055760384,-0.605385,-0.0763748,1.5601,0.567518,-0.0566239,-0.821022,-0.0252971,0.21104,-0.261517,0.0284294,-0.000959735,0.0115564,0.0392924,-0.105139,0.0926045,-0.131185
1413393219105760512,-0.595136,-0.0899385,1.55882,0.567964,-0.0562467,-0.820733,-0.0255213,0.19481,-0.24174,0.05754,-0.000966419,0.0116057,0.0393994,-0.107752,0.0914288,-0.135123
1413393219155760384,-0.586074,-0.102121,1.56497,0.569358,-0.0567632,-0.819758,-0.0246268,0.175544,-0.231031,0.066166,-0.00100366,0.0116657,0.039531,-0.109469,0.0914976,-0.136256
1413393219205760512,-0.577782,-0.114723,1.56766,0.570281,-0.0564425,-0.819146,-0.0243733,0.156366,-0.227972,0.0842477,-0.00100931,0.0116648,0.0395945,-0.1102,0.0929389,-0.138908
1413393219255760384,-0.570562,-0.126046,1.57355,0.572018,-0.0557879,-0.817991,-0.0239671,0.140104,-0.214747,0.108068,-0.000979799,0.0117338,0.0397056,-0.112062,0.0944334,-0.144211
1413393219305760512,-0.564255,-0.137742,1.58324,0.5735,-0.055313,-0.816987,-0.023901,0.110802,-0.1942,0.115989,-0.000990482,0.0117832,0.0398279,-0.114345,0.0938049,-0.15148
1413393219355760384,-0.559842,-0.145953,1.59285,0.573866,-0.054825,-0.816786,-0.0230987,0.0718016,-0.186954,0.123945,-0.000984508,0.011756,0.03994,-0.11411,0.0996907,-0.154441
1413393219405760512,-0.556913,-0.155019,1.59919,0.574452,-0.0549129,-0.816411,-0.0215105,0.0418213,-0.169054,0.115946,-0.000974437,0.0118663,0.0400524,-0.115987,0.099891,-0.156818
1413393219455760384,-0.555726,-0.163287,1.60096,0.575738,-0.0547961,-0.815512,-0.0215261,0.00157647,-0.147753,0.0684118,-0.00101556,0.0119101,0.0401567,-0.117065,0.102088,-0.159968
1413393219505760512,-0.55628,-0.171775,1.60416,0.576945,-0.0549129,-0.814642,-0.0218709,-0.0263755,-0.141215,0.0247616,-0.00102227,0.0119603,0.0402967,-0.119792,0.10371,-0.163537
1413393219555760384,-0.55847,-0.17832,1.60181,0.578659,-0.0546453,-0.81345,-0.0216069,-0.047842,-0.129625,-0.00673822,-0.00100031,0.0120025,0.0404047,-0.121568,0.107284,-0.165302
1413393219605760512,-0.561086,-0.184101,1.59956,0.580354,-0.0544536,-0.812246,-0.0219168,-0.053367,-0.118518,-0.00691047,-0.00103891,0.0120321,0.0405104,-0.122579,0.112922,-0.166401
1413393219655760384,-0.564111,-0.189651,1.59799,0.582585,-0.0544396,-0.810659,-0.0215332,-0.0623153,-0.111309,0.0301948,-0.00101665,0.0121017,0.040621,-0.12445,0.117982,-0.168888
1413393219705760512,-0.566948,-0.195089,1.60254,0.585393,-0.0540672,-0.808633,-0.0224779,-0.0716167,-0.0940189,0.0934425,-0.000998542,0.0121634,0.0407416,-0.125381,0.124031,-0.170424
1413393219755760384,-0.567358,-0.20471,1.60735,0.588355,-0.0534634,-0.806473,-0.0241161,-0.0894177,-0.0841099,0.166631,-0.00102222,0.0121822,0.0408199,-0.125379,0.129191,-0.171551
1413393219805760512,-0.578641,-0.17153,1.633,0.589488,-0.0455318,-0.806252,-0.0197054,-0.0709889,-0.0776063,0.218905,-0.00110373,0.0122325,0.0409091,-0.108499,0.166948,-0.122934
1413393219855760384,-0.580877,-0.212503,1.61,0.592195,-0.052554,-0.803595,-0.0279101,-0.065288,-0.0649675,0.324927,-0.00102061,0.0122196,0.0410383,-0.124877,0.140699,-0.170132
1413393219905760512,-0.594972,-0.148803,1.665,0.588803,-0.0390719,-0.807165,-0.016408,-0.0680171,-0.0622851,0.344285,-0.00120287,0.012391,0.041139,-0.0855709,0.194189,-0.052075
1413393219955760384,-0.586644,-0.215589,1.65201,0.593903,-0.0506551,-0.802392,-0.0296802,-0.072385,-0.0534229,0.33827,-0.00105102,0.0123174,0.0412529,-0.120476,0.17566,-0.153858
1413393220005760512,-0.615407,-0.127492,1.69489,0.587967,-0.0365517,-0.807969,-0.0120314,-0.067326,-0.0556408,0.300414,-0.00123648,0.0125392,0.0413732,-0.0590851,0.27357,0.031397
1413393220055760384,-0.602996,-0.104989,1.61126,0.594421,-0.0336425,-0.803442,-0.0037137,-0.0413985,-0.0624257,0.251648,-0.00129381,0.0125196,0.0415166,-0.093912,0.410035,-0.0893846
1413393220105760512,-0.605034,-0.107592,1.62371,0.595057,-0.0337251,-0.802966,-0.00399705,-0.0377945,-0.0600044,0.227333,-0.00126781,0.0125685,0.0415818,-0.0949255,0.412243,-0.0898916
1413393220155760384,-0.608089,-0.106059,1.63721,0.595017,-0.0326687,-0.80304,-0.00393395,-0.0314132,-0.0699169,0.207215,-0.00122837,0.0126437,0.0416823,-0.0934205,0.422258,-0.0821343
1413393220205760512,-0.607594,-0.113827,1.64542,0.59609,-0.0326446,-0.802236,-0.00538593,-0.0298096,-0.0737376,0.228203,-0.00123463,0.012588,0.0417302,-0.0951409,0.417344,-0.089036
1413393220255760384,-0.609206,-0.117365,1.66009,0.596646,-0.033182,-0.8018,-0.00553632,-0.0226562,-0.0701824,0.226777,-0.00122702,0.012653,0.0418621,-0.0969399,0.417587,-0.0878562
1413393220305760512,-0.609082,-0.122308,1.66301,0.597135,-0.0324768,-0.801454,-0.00682638,-0.0100469,-0.0901165,0.232059,-0.0012421,0.012675,0.0419857,-0.0983334,0.416186,-0.0868091
1413393220355760384,-0.609813,-0.126557,1.67917,0.597699,-0.0327336,-0.801024,-0.00667817,-0.00391538,-0.0899454,0.234979,-0.00123631,0.0127063,0.0420778,-0.100419,0.417427,-0.0871229
1413393220405760512,-0.608267,-0.133202,1.68877,0.597847,-0.0333061,-0.800887,-0.00699293,0.00498298,-0.0825081,0.247726,-0.00122645,0.0127376,0.0421388,-0.102487,0.415943,-0.088535
1413393220455760384,-0.608,-0.13941,1.70863,0.597368,-0.033779,-0.80122,-0.00762054,0.0188388,-0.101259,0.241947,-0.00123035,0.0127551,0.0422532,-0.106356,0.413426,-0.0899602
1413393220505760512,-0.607223,-0.147932,1.71871,0.595776,-0.0348276,-0.802357,-0.00784349,0.0257773,-0.104829,0.228789,-0.00124318,0.0128148,0.042361,-0.111117,0.408048,-0.0923009
1413393220555760384,-0.603237,-0.160994,1.70754,0.594411,-0.036568,-0.803281,-0.00884554,0.0389275,-0.100342,0.189617,-0.00124816,0.0128032,0.0423992,-0.115118,0.399899,-0.0959883
1413393220605760512,-0.599584,-0.174782,1.72844,0.593633,-0.038532,-0.803751,-0.0100126,0.0322734,-0.11436,0.134064,-0.00123802,0.012879,0.0425557,-0.117786,0.398736,-0.0968461
1413393220655760384,-0.600167,-0.183829,1.7718,0.594173,-0.0403595,-0.803257,-0.0104022,0.0340709,-0.121596,0.0820124,-0.00123213,0.0129065,0.0426484,-0.11852,0.41161,-0.0948105
1413393220705760512,-0.594819,-0.196729,1.75024,0.594494,-0.0422513,-0.802924,-0.0102532,0.0445064,-0.107879,0.0313602,-0.00121973,0.0129103,0.0427253,-0.117018,0.417726,-0.092299
1413393220755760384,-0.591567,-0.20533,1.73062,0.593911,-0.0440713,-0.803282,-0.00811915,0.0323616,-0.133964,-0.0173693,-0.00122734,0.0129429,0.0427934,-0.116674,0.413907,-0.0867958
1413393220805760512,-0.593653,-0.207005,1.75816,0.591857,-0.0466547,-0.804682,-0.0039847,0.0436317,-0.127486,-0.00905185,-0.00120777,0.0130158,0.0428962,-0.117358,0.417637,-0.0882479
1413393220855760384,-0.611204,-0.146195,1.77582,0.58553,-0.0437678,-0.809365,0.0129199,0.0554477,-0.0970641,0.0452895,-0.0013228,0.013176,0.0429731,-0.0752719,0.548567,0.0199598
1413393220905760512,-0.607728,-0.151127,1.77312,0.584262,-0.0453811,-0.810143,0.0157435,0.060303,-0.114199,0.100172,-0.00130645,0.0131979,0.0430595,-0.0718343,0.556112,0.0227257
1413393220955760384,-0.606409,-0.154802,1.76862,0.582882,-0.0461114,-0.811069,0.0170241,0.0506286,-0.0778005,0.204851,-0.00130439,0.0132115,0.0431652,-0.0690883,0.559219,0.0269553
1413393221005760512,-0.587113,-0.227138,1.77903,0.588247,-0.0543225,-0.806853,0.00170087,0.0452012,-0.042863,0.22993,-0.00120773,0.0130951,0.0432734,-0.110297,0.426363,-0.0829154
1413393221055760384,-0.582671,-0.233943,1.78781,0.587506,-0.0549925,-0.807349,0.000499108,0.0372883,-0.0477047,0.260026,-0.0012187,0.013134,0.0433718,-0.1079,0.426191,-0.079856
1413393221105760512,-0.600432,-0.163094,1.81363,0.581366,-0.0482187,-0.812081,0.0146242,0.0231654,-0.0113814,0.272113,-0.00129222,0.0132997,0.0434573,-0.0619366,0.573172,0.033689
1413393221155760384,-0.583931,-0.231981,1.82829,0.58564,-0.0557157,-0.808654,-0.00117288,0.0281297,0.00694063,0.285193,-0.00119914,0.0132111,0.0435119,-0.103547,0.426224,-0.0745697
1413393221205760512,-0.602442,-0.163407,1.83313,0.580434,-0.0489235,-0.812776,0.00994071,0.0119776,0.00111207,0.290555,-0.00128154,0.0133465,0.0436469,-0.0688142,0.552153,0.0119485
1413393221255760384,-0.604162,-0.159527,1.87481,0.579103,-0.0489571,-0.813731,0.00928299,0.0127023,0.0179041,0.284643,-0.00129078,0.0133742,0.0437059,-0.0683536,0.554312,0.0102136
1413393221305760512,-0.585045,-0.226261,1.88613,0.581656,-0.0555494,-0.81151,-0.00654522,0.0154377,0.024832,0.269461,-0.0012218,0.0132882,0.0437996,-0.107074,0.427843,-0.0890828
1413393221355760384,-0.599161,-0.171833,1.89829,0.576226,-0.049687,-0.815773,0.00327701,-0.00553981,0.0193251,0.308267,-0.00128396,0.0134463,0.0438857,-0.0731879,0.526542,-0.00432996
1413393221405760512,-0.576773,-0.237428,1.92747,0.580939,-0.0538658,-0.812077,-0.0117979,-0.0197518,0.0311689,0.312498,-0.00118855,0.0134502,0.0439936,-0.127047,0.369752,-0.148288
1413393221455760384,-0.576828,-0.239977,1.94078,0.580823,-0.0532984,-0.812142,-0.015182,-0.0378931,0.05423,0.293116,-0.00119826,0.013427,0.0440605,-0.129256,0.360722,-0.159418
1413393221505760512,-0.57953,-0.237549,1.95405,0.579984,-0.0523807,-0.812776,-0.0164638,-0.0546925,0.0485895,0.231448,-0.0011887,0.013491,0.0441747,-0.128474,0.359368,-0.158732
1413393221555760384,-0.582356,-0.235161,1.96466,0.579211,-0.0503036,-0.813393,-0.019388,-0.0631843,0.0512783,0.183112,-0.00117868,0.0135264,0.0442273,-0.127292,0.357656,-0.160535
1413393221605760512,-0.584515,-0.236344,1.97321,0.579543,-0.0496061,-0.813134,-0.0219831,-0.0882677,0.0473486,0.165559,-0.00119365,0.013523,0.0443451,-0.128307,0.353335,-0.169861
1413393221655760384,-0.590473,-0.231173,1.98175,0.579838,-0.0479837,-0.813006,-0.0225154,-0.107976,0.0272663,0.170118,-0.00122116,0.0135449,0.0443992,-0.124213,0.355966,-0.164438
1413393221705760512,-0.595282,-0.231783,1.99019,0.583024,-0.047334,-0.81073,-0.0236652,-0.113949,0.0309003,0.180353,-0.00120927,0.0135592,0.0444721,-0.12449,0.352566,-0.170351
1413393221755760384,-0.601419,-0.229354,1.99871,0.586439,-0.0471602,-0.808294,-0.022957,-0.121386,0.0213228,0.172721,-0.0011613,0.0136968,0.0447395,-0.125079,0.357978,-0.169956
1413393221805760512,-0.607317,-0.229031,2.00755,0.58974,-0.046209,-0.805954,-0.022583,-0.125717,0.00280647,0.176819,-0.00111952,0.0136212,0.0447124,-0.121545,0.356731,-0.170733
1413393221855760384,-0.613504,-0.228868,2.01613,0.591709,-0.0451905,-0.804557,-0.0229588,-0.124482,0.0181321,0.166273,-0.00110636,0.0135421,0.0447192,-0.118155,0.355268,-0.169825
1413393221905760512,-0.619853,-0.228429,2.02441,0.592871,-0.0452257,-0.803725,-0.0220454,-0.128896,-0.00441652,0.153804,-0.00107545,0.0135553,0.0448268,-0.117597,0.35589,-0.169959
1413393221955760384,-0.626167,-0.228606,2.03181,0.594364,-0.0446886,-0.802695,-0.0203965,-0.128232,-0.00868863,0.1307,-0.000922206,0.0137325,0.0451368,-0.120699,0.36091,-0.17277
1413393222005760512,-0.631991,-0.229146,2.03702,0.594459,-0.0446508,-0.802637,-0.0199916,-0.123174,0.00262284,0.0779867,-0.000887396,0.0137463,0.0451667,-0.119765,0.35763,-0.172849
1413393222055760384,-0.637676,-0.230027,2.03922,0.595305,-0.0444175,-0.80204,-0.0192617,-0.118595,-0.0185425,0.0179623,-0.000910831,0.0137818,0.0452199,-0.119933,0.351389,-0.172852
1413393222105760512,-0.643373,-0.231293,2.03843,0.595996,-0.0440067,-0.801583,-0.0178428,-0.120947,-0.0310941,-0.0446133,-0.000930939,0.0138119,0.0452837,-0.119746,0.348368,-0.171936
1413393222155760384,-0.649087,-0.232933,2.03509,0.596113,-0.0432478,-0.801538,-0.0177751,-0.11311,-0.0199502,-0.101455,-0.00091342,0.0138902,0.0453727,-0.121223,0.345263,-0.172367
1413393222205760512,-0.654218,-0.234722,2.02889,0.596066,-0.0428,-0.801602,-0.0175699,-0.104771,-0.0303939,-0.161925,-0.000914824,0.0139244,0.0454766,-0.12165,0.341653,-0.173559
1413393222255760384,-0.658839,-0.236472,2.01937,0.595061,-0.0424962,-0.802385,-0.0166035,-0.0991933,-0.0402282,-0.214026,-0.000975247,0.0139991,0.0455537,-0.123736,0.338945,-0.175445
1413393222305760512,-0.663274,-0.238204,2.00762,0.59275,-0.0415957,-0.804137,-0.0167932,-0.0984709,-0.0234662,-0.245306,-0.000960829,0.0140305,0.0456981,-0.124768,0.337969,-0.177943
1413393222355760384,-0.667957,-0.23991,1.99532,0.588707,-0.0417651,-0.807101,-0.0163962,-0.103648,-0.0339459,-0.24259,-0.000962652,0.0140409,0.0457262,-0.125744,0.336898,-0.179984
1413393222405760512,-0.672897,-0.241871,1.98386,0.584702,-0.041334,-0.810048,-0.0154098,-0.109847,-0.0407543,-0.22223,-0.000998628,0.0140984,0.0458198,-0.127171,0.336589,-0.182639
1413393222455760384,-0.678131,-0.243647,1.97393,0.581345,-0.0401196,-0.812497,-0.0166645,-0.11611,-0.0329723,-0.195053,-0.000946366,0.0141418,0.0459241,-0.126971,0.337527,-0.186062
1413393222505760512,-0.68441,-0.245771,1.965,0.578689,-0.0397229,-0.814428,-0.0157775,-0.143323,-0.0487862,-0.164088,-0.00094,0.0141677,0.0459908,-0.127401,0.337126,-0.186587
1413393222555760384,-0.69192,-0.248212,1.9582,0.577666,-0.0414763,-0.815122,-0.0125737,-0.153906,-0.0560123,-0.103354,-0.000931504,0.0142493,0.0460732,-0.12865,0.337775,-0.187515
1413393222605760512,-0.700217,-0.250576,1.95349,0.576317,-0.0410302,-0.816105,-0.0122228,-0.176346,-0.0416443,-0.0754024,-0.000886725,0.0143266,0.0462162,-0.127893,0.336834,-0.187051
1413393222655760384,-0.709046,-0.252665,1.9505,0.575146,-0.0414467,-0.816925,-0.0111134,-0.199638,-0.0417032,-0.016883,-0.00086952,0.0143251,0.0462471,-0.126538,0.334627,-0.187055
1413393222705760512,-0.719556,-0.254604,1.95078,0.575331,-0.0396333,-0.81687,-0.0121243,-0.221925,-0.0396758,0.0318135,-0.000894293,0.0143639,0.0463279,-0.126801,0.331417,-0.185311
1413393222755760384,-0.730947,-0.256364,1.95257,0.573907,-0.0397009,-0.817886,-0.010841,-0.246018,-0.029706,0.0650353,-0.0009493,0.0143504,0.0463916,-0.127247,0.326717,-0.183006
1413393222805760512,-0.743503,-0.257754,1.95639,0.572212,-0.0396096,-0.819087,-0.0100761,-0.270351,-0.026109,0.115554,-0.000981756,0.0143776,0.0464642,-0.128498,0.323957,-0.18138
1413393222855760384,-0.756982,-0.258867,1.96253,0.570249,-0.0393455,-0.820477,-0.00920575,-0.283248,-0.0203307,0.145969,-0.0010133,0.0144224,0.0465449,-0.128844,0.322829,-0.181633
1413393222905760512,-0.771504,-0.259691,1.97097,0.569244,-0.0390091,-0.821208,-0.00760099,-0.303656,-0.0128114,0.188242,-0.00100638,0.0144591,0.0466297,-0.128839,0.32185,-0.180573
1413393222955760384,-0.787228,-0.260155,1.98137,0.567638,-0.0381672,-0.822366,-0.00662537,-0.333363,-0.00740518,0.235258,-0.00102346,0.0144866,0.0467219,-0.129173,0.322602,-0.181767
1413393223005760512,-0.804218,-0.260474,1.99371,0.56878,-0.0365566,-0.821648,-0.00695162,-0.35305,-0.00377211,0.246461,-0.00102763,0.0144513,0.0467732,-0.12759,0.323157,-0.180712
1413393223055760384,-0.822642,-0.260864,2.00705,0.570749,-0.0353231,-0.820341,-0.00628594,-0.386405,-0.00297587,0.267777,-0.00100798,0.0144809,0.0468804,-0.128267,0.323584,-0.180425
1413393223105760512,-0.84242,-0.260877,2.02026,0.572557,-0.0346531,-0.819114,-0.00546477,-0.414205,0.00743859,0.269161,-0.00105045,0.0144454,0.046935,-0.126839,0.322801,-0.179116
1413393223155760384,-0.863621,-0.260396,2.03345,0.574029,-0.0333394,-0.81813,-0.00651416,-0.441186,0.00614465,0.273118,-0.00104975,0.0144423,0.0470119,-0.127257,0.324048,-0.181283
1413393223205760512,-0.885826,-0.260342,2.04674,0.575705,-0.0310336,-0.81703,-0.00796195,-0.459404,-0.00244719,0.278708,-0.00110505,0.0144111,0.0471082,-0.126124,0.322178,-0.181516
1413393223255760384,-0.909216,-0.260296,2.05933,0.576583,-0.0296382,-0.816449,-0.00917919,-0.476963,0.00307713,0.236371,-0.0011121,0.0144207,0.047113,-0.127825,0.325424,-0.18141
1413393223305760512,-0.933499,-0.260715,2.07045,0.578129,-0.0291987,-0.815373,-0.00901413,-0.492283,-0.0145751,0.19709,-0.00111957,0.0144211,0.047219,-0.127628,0.326009,-0.179487
1413393223355760384,-0.958351,-0.261542,2.07811,0.5791,-0.0283737,-0.814705,-0.00975042,-0.504905,-0.0222742,0.112836,-0.00111019,0.0144466,0.0473037,-0.128779,0.327529,-0.178248
1413393223405760512,-0.983664,-0.262914,2.08143,0.580754,-0.0277915,-0.813542,-0.0101339,-0.510151,-0.0303558,0.0136316,-0.00111604,0.0144153,0.0473589,-0.127695,0.325687,-0.177132
1413393223455760384,-1.00924,-0.26415,2.07908,0.582725,-0.0276684,-0.812125,-0.0109072,-0.520972,-0.0381736,-0.0992399,-0.00114974,0.0145398,0.0473989,-0.131594,0.328921,-0.180643
1413393223505760512,-1.03527,-0.266157,2.07193,0.58538,-0.0267425,-0.810229,-0.0119869,-0.526978,-0.0456131,-0.193874,-0.00109573,0.0145996,0.0474889,-0.132359,0.331892,-0.180099
1413393223555760384,-1.06159,-0.268697,2.06046,0.587986,-0.0272942,-0.80832,-0.0121302,-0.53553,-0.0554569,-0.268156,-0.00106974,0.0146267,0.0475697,-0.13233,0.333658,-0.179871
1413393223605760512,-1.08818,-0.271405,2.04575,0.590486,-0.0278618,-0.806461,-0.013094,-0.526525,-0.0558322,-0.336227,-0.0010598,0.0146527,0.0475943,-0.131649,0.334313,-0.180317
1413393223655760384,-1.11428,-0.274297,2.02818,0.592427,-0.0282949,-0.804995,-0.0145941,-0.528554,-0.0629426,-0.367074,-0.00105026,0.0146883,0.0476498,-0.13114,0.335498,-0.180571
1413393223705760512,-1.14061,-0.277711,2.01007,0.593148,-0.0297787,-0.804392,-0.0155619,-0.523628,-0.0716604,-0.34274,-0.0010325,0.014708,0.047692,-0.129977,0.335521,-0.179193
1413393223755760384,-1.16668,-0.281813,1.99432,0.593761,-0.030944,-0.80387,-0.0168455,-0.5234,-0.0809802,-0.270823,-0.0010527,0.0147497,0.0477593,-0.129024,0.333178,-0.177238
1413393223805760512,-1.19207,-0.286362,1.98217,0.59462,-0.0327152,-0.803148,-0.0176332,-0.51164,-0.0984134,-0.215539,-0.00106356,0.0147775,0.0478142,-0.126918,0.33211,-0.176775
1413393223855760384,-1.21733,-0.291536,1.97443,0.593197,-0.0342515,-0.804113,-0.0186052,-0.484152,-0.104488,-0.123265,-0.00107823,0.0147463,0.0478354,-0.123722,0.330009,-0.175267
1413393223905760512,-1.24161,-0.296834,1.96908,0.593347,-0.035011,-0.803901,-0.0214005,-0.497899,-0.101128,-0.0604926,-0.00110839,0.0147291,0.0478861,-0.121043,0.327817,-0.174777
1413393223955760384,-1.26609,-0.302546,1.96777,0.592779,-0.0359627,-0.804238,-0.022843,-0.492758,-0.116606,-0.00552287,-0.00116338,0.0147113,0.0479293,-0.119476,0.323661,-0.172918
1413393224005760512,-1.29052,-0.308675,1.96852,0.59362,-0.0373395,-0.803531,-0.023661,-0.49107,-0.127416,0.0249225,-0.00122854,0.0146449,0.0479608,-0.116663,0.320334,-0.171042
1413393224055760384,-1.31525,-0.315461,1.96938,0.59292,-0.039204,-0.803954,-0.0238016,-0.495246,-0.143115,0.0151943,-0.00125577,0.0146909,0.0480678,-0.117839,0.320519,-0.167729
1413393224105760512,-1.34005,-0.322941,1.96949,0.594015,-0.04142,-0.803036,-0.0237548,-0.495644,-0.1761,-0.0312955,-0.00124503,0.0147306,0.0481087,-0.117761,0.328561,-0.167769
1413393224155760384,-1.36485,-0.332236,1.96719,0.594409,-0.0426723,-0.802655,-0.0245524,-0.497108,-0.195964,-0.060738,-0.00125355,0.0147736,0.0481962,-0.11729,0.32557,-0.163391
1413393224205760512,-1.38965,-0.342517,1.96237,0.594373,-0.0419237,-0.802665,-0.0262991,-0.489518,-0.212287,-0.12836,-0.00125332,0.0148368,0.0483173,-0.116255,0.324321,-0.160311
1413393224255760384,-1.41432,-0.35328,1.95507,0.595372,-0.0426442,-0.801834,-0.0278547,-0.4878,-0.22086,-0.158446,-0.0012602,0.0148742,0.0484036,-0.114246,0.320526,-0.156649
1413393224305760512,-1.43846,-0.364618,1.94584,0.596888,-0.0439486,-0.800626,-0.0281361,-0.480594,-0.233939,-0.218201,-0.0012604,0.0149174,0.048476,-0.111707,0.318684,-0.154642
1413393224355760384,-1.46291,-0.376521,1.93352,0.596941,-0.0431597,-0.800578,-0.0295603,-0.483784,-0.238009,-0.264906,-0.00127325,0.0149521,0.0485391,-0.107897,0.31665,-0.151764
1413393224405760512,-1.48695,-0.388542,1.91915,0.596429,-0.0447761,-0.800812,-0.0311289,-0.469432,-0.232122,-0.309118,-0.00125753,0.0150113,0.048631,-0.103948,0.314424,-0.148298
1413393224455760384,-1.51005,-0.400363,1.90218,0.597415,-0.0484116,-0.799842,-0.0317206,-0.446192,-0.236443,-0.359735,-0.00125357,0.0150475,0.0486921,-0.100123,0.311864,-0.146225
1413393224505760512,-1.53166,-0.411909,1.88275,0.597672,-0.0533522,-0.799296,-0.0326869,-0.416474,-0.224696,-0.411788,-0.00125793,0.015038,0.0487444,-0.0965699,0.311044,-0.145246
1413393224555760384,-1.55196,-0.422974,1.86086,0.597568,-0.0607605,-0.798853,-0.0324824,-0.399656,-0.221352,-0.446185,-0.00123549,0.0150619,0.0488252,-0.0946141,0.312645,-0.146708
1413393224605760512,-1.57151,-0.433985,1.83853,0.598542,-0.0682941,-0.797468,-0.0335921,-0.38585,-0.212529,-0.46421,-0.00125481,0.0150992,0.0488849,-0.0927448,0.311503,-0.147151
1413393224655760384,-1.59082,-0.444323,1.81635,0.598558,-0.0767561,-0.796622,-0.0350734,-0.380746,-0.194613,-0.419046,-0.00126214,0.0151161,0.0489473,-0.0900708,0.312203,-0.147067
1413393224705760512,-1.60933,-0.45423,1.79585,0.596473,-0.0852537,-0.797245,-0.0367849,-0.370845,-0.202763,-0.409678,-0.0012662,0.0151368,0.0490189,-0.0870861,0.314321,-0.144826
1413393224755760384,-1.62803,-0.463725,1.77559,0.594424,-0.0941538,-0.797701,-0.0383275,-0.379408,-0.190168,-0.390867,-0.00126884,0.015158,0.0490713,-0.0834852,0.315754,-0.141648
1413393224805760512,-1.64634,-0.472994,1.75634,0.592139,-0.102481,-0.798178,-0.0422019,-0.35119,-0.17494,-0.373145,-0.00124148,0.0151897,0.0491496,-0.0800875,0.317524,-0.137394
1413393224855760384,-1.66385,-0.481876,1.73863,0.589821,-0.11088,-0.798598,-0.0453795,-0.349051,-0.185116,-0.324929,-0.00124035,0.0152049,0.0491944,-0.0751843,0.318038,-0.131364
1413393224905760512,-1.68148,-0.490346,1.72416,0.588639,-0.116782,-0.798422,-0.0488733,-0.351265,-0.169854,-0.267535,-0.00122031,0.0152046,0.0492584,-0.0712077,0.318896,-0.125034
1413393224955760384,-1.69788,-0.498511,1.71158,0.586573,-0.12283,-0.79885,-0.0518033,-0.317228,-0.146044,-0.205958,-0.0012039,0.0152127,0.0493234,-0.0678525,0.318554,-0.118176
1413393225005760512,-1.71365,-0.505943,1.70253,0.58479,-0.12617,-0.799367,-0.055809,-0.314696,-0.151093,-0.134366,-0.00120874,0.015224,0.049379,-0.0654183,0.31832,-0.111914
1413393225055760384,-1.72916,-0.512696,1.6964,0.582924,-0.127637,-0.800212,-0.059747,-0.304997,-0.129281,-0.11945,-0.00119948,0.0152448,0.0494492,-0.0643001,0.318474,-0.106308
1413393225105760512,-1.74439,-0.518185,1.69297,0.581717,-0.129694,-0.800513,-0.0629587,-0.285542,-0.09665,-0.0477759,-0.00120166,0.0152649,0.0495058,-0.0634278,0.319239,-0.101839
1413393225155760384,-1.75834,-0.523362,1.69029,0.581412,-0.130868,-0.800338,-0.0655156,-0.273803,-0.108892,-0.061862,-0.00119991,0.0152818,0.0495694,-0.0629875,0.320635,-0.0983436
1413393225205760512,-1.77151,-0.528364,1.68733,0.58082,-0.132628,-0.800481,-0.0654853,-0.262287,-0.0920032,-0.0500885,-0.00118947,0.0152719,0.0496365,-0.0630812,0.32262,-0.0960493
1413393225255760384,-1.78409,-0.532855,1.68421,0.579942,-0.133221,-0.800866,-0.0673275,-0.244649,-0.079345,-0.0451305,-0.00120202,0.0152883,0.0496768,-0.0643605,0.32326,-0.0951099
1413393225305760512,-1.79632,-0.536847,1.68036,0.579046,-0.135014,-0.801139,-0.0682133,-0.244023,-0.0841548,-0.0744275,-0.00117253,0.0152632,0.0497125,-0.0656421,0.326944,-0.0966741
1413393225355760384,-1.80828,-0.54042,1.67762,0.579001,-0.137651,-0.800516,-0.0706048,-0.227138,-0.0618114,-0.0547185,-0.00115976,0.0153276,0.0497994,-0.0695073,0.326763,-0.0964562
1413393225405760512,-1.81981,-0.54363,1.67519,0.578157,-0.14333,-0.800026,-0.0717646,-0.232045,-0.0461821,-0.0329742,-0.00118705,0.0153235,0.0498814,-0.0734653,0.324927,-0.0971714
1413393225455760384,-1.83191,-0.545784,1.67441,0.5772,-0.150191,-0.799293,-0.0735768,-0.244607,-0.0308323,-0.0167415,-0.00120705,0.0153412,0.0499324,-0.0769562,0.324469,-0.098762
1413393225505760512,-1.84377,-0.546778,1.67492,0.577163,-0.159279,-0.797361,-0.0756954,-0.232654,0.0105648,-0.000602133,-0.00124898,0.0153763,0.0499813,-0.0820949,0.321943,-0.100859
1413393225555760384,-1.85554,-0.546053,1.67548,0.575364,-0.169374,-0.796244,-0.0791536,-0.234418,0.039295,0.0168758,-0.00127585,0.0154514,0.050035,-0.0859738,0.322562,-0.102405
1413393225605760512,-1.868,-0.54342,1.67712,0.574188,-0.180446,-0.794205,-0.0835842,-0.262347,0.076149,0.0574626,-0.00127057,0.0154853,0.0501194,-0.0880794,0.325633,-0.103554
1413393225655760384,-1.88047,-0.538552,1.67961,0.573749,-0.192616,-0.791091,-0.0888063,-0.256649,0.107344,0.0764873,-0.00128434,0.0154967,0.0501563,-0.0883075,0.32891,-0.103375
1413393225705760512,-1.89305,-0.532953,1.68344,0.572348,-0.204282,-0.788245,-0.0967329,-0.255172,0.128448,0.105224,-0.00127208,0.0155373,0.0502165,-0.0878038,0.333959,-0.101208
1413393225755760384,-1.90582,-0.526186,1.68902,0.570769,-0.215132,-0.785194,-0.10683,-0.26554,0.139715,0.11115,-0.00127505,0.0155509,0.0502833,-0.086711,0.338534,-0.0991808
1413393225805760512,-1.91866,-0.51852,1.6947,0.569269,-0.22496,-0.781845,-0.118509,-0.249473,0.176831,0.1342,-0.00125851,0.0155829,0.050342,-0.0862374,0.339804,-0.0957129
1413393225855760384,-1.93098,-0.509842,1.70007,0.566484,-0.234299,-0.778775,-0.133081,-0.244715,0.185151,0.0728102,-0.00126439,0.0155837,0.0503937,-0.0850288,0.342352,-0.0919582
1413393225905760512,-1.94358,-0.500712,1.70096,0.564782,-0.244111,-0.774682,-0.145943,-0.248778,0.181781,-0.020268,-0.00124434,0.0155698,0.0504711,-0.082579,0.346439,-0.0880522
1413393225955760384,-1.95634,-0.491761,1.69706,0.561516,-0.253052,-0.771394,-0.160049,-0.256745,0.184801,-0.124614,-0.00124101,0.0155904,0.0505164,-0.0810757,0.347781,-0.0820345
1413393226005760512,-1.96915,-0.482719,1.6893,0.559305,-0.261962,-0.767187,-0.173141,-0.252559,0.178354,-0.197307,-0.00126772,0.0155914,0.0505718,-0.0781992,0.349877,-0.0764453
1413393226055760384,-1.98193,-0.473959,1.67898,0.557236,-0.272278,-0.762575,-0.183936,-0.251564,0.170566,-0.21528,-0.00125601,0.0156164,0.0506569,-0.0756899,0.353884,-0.0705045
1413393226105760512,-1.99444,-0.466071,1.66837,0.555365,-0.283345,-0.758111,-0.19119,-0.248317,0.147163,-0.213609,-0.00124695,0.0156433,0.0507047,-0.0731151,0.358395,-0.064677
1413393226155760384,-2.00685,-0.4586,1.65834,0.554117,-0.294212,-0.753364,-0.197073,-0.241389,0.147749,-0.183277,-0.00127287,0.0156584,0.0507659,-0.0717255,0.36165,-0.0584826
1413393226205760512,-2.01859,-0.45137,1.6501,0.552297,-0.30435,-0.749232,-0.202465,-0.22989,0.127613,-0.125553,-0.00127901,0.0157093,0.050833,-0.0709403,0.367677,-0.052529
1413393226255760384,-2.03053,-0.444605,1.64575,0.550491,-0.31381,-0.745905,-0.205206,-0.235747,0.133061,-0.0592084,-0.00130645,0.0157708,0.0509038,-0.0707849,0.369318,-0.0464968
1413393226305760512,-2.04171,-0.437691,1.64386,0.549046,-0.321888,-0.742829,-0.207706,-0.211269,0.128418,-0.044203,-0.00131939,0.0158215,0.0509776,-0.0705965,0.375911,-0.0420082
1413393226355760384,-2.05247,-0.431133,1.64348,0.546629,-0.330228,-0.741091,-0.207197,-0.219129,0.120368,-7.90726e-06,-0.0013689,0.0158383,0.0510179,-0.0690963,0.382136,-0.0411464
1413393226405760512,-2.06307,-0.424913,1.64368,0.542715,-0.336401,-0.741033,-0.207762,-0.215926,0.117029,-0.00226697,-0.00134986,0.0158709,0.0510967,-0.0669346,0.387457,-0.0352741
1413393226455760384,-2.07417,-0.419018,1.64301,0.538297,-0.342332,-0.741733,-0.207068,-0.229614,0.117196,-0.0218142,-0.00137253,0.0159191,0.0511636,-0.0648839,0.390128,-0.0296978
1413393226505760512,-2.08628,-0.412802,1.64064,0.534487,-0.347241,-0.742458,-0.206164,-0.250736,0.124338,-0.0675645,-0.00138822,0.015963,0.0512343,-0.0616068,0.392066,-0.0250324
1413393226555760384,-2.0989,-0.406373,1.63641,0.531987,-0.351339,-0.742657,-0.204968,-0.255137,0.132736,-0.104072,-0.00140539,0.0160237,0.0513286,-0.0596961,0.392565,-0.0236551
1413393226605760512,-2.1116,-0.39931,1.63004,0.52936,-0.354508,-0.743239,-0.204202,-0.251384,0.152037,-0.134299,-0.00146688,0.0160646,0.0514169,-0.0566761,0.392819,-0.0220861
1413393226655760384,-2.12432,-0.390872,1.62329,0.527692,-0.356128,-0.743441,-0.204962,-0.260709,0.173427,-0.120848,-0.00140416,0.0160335,0.0514451,-0.0509492,0.398564,-0.0178829
1413393226705760512,-2.13764,-0.381507,1.61729,0.527463,-0.353535,-0.743361,-0.210265,-0.274499,0.196444,-0.119873,-0.00147666,0.0160638,0.0515279,-0.0484761,0.396847,-0.0188497
1413393226755760384,-2.15143,-0.37106,1.61193,0.528333,-0.350504,-0.742477,-0.216192,-0.272735,0.221125,-0.103721,-0.00156403,0.0161564,0.0515496,-0.0479557,0.395445,-0.015882
1413393226805760512,-2.16569,-0.360181,1.60668,0.528164,-0.347283,-0.742603,-0.221312,-0.299382,0.215241,-0.0899451,-0.00157664,0.016175,0.0516154,-0.0453298,0.396129,-0.0135649
1413393226855760384,-2.18065,-0.349151,1.60167,0.528273,-0.344346,-0.742882,-0.224677,-0.305216,0.219756,-0.112267,-0.0015895,0.0161988,0.0516887,-0.0433347,0.397369,-0.0105042
1413393226905760512,-2.19607,-0.337948,1.59707,0.527492,-0.341401,-0.743664,-0.22839,-0.313269,0.22038,-0.0969405,-0.00159382,0.0162205,0.0517244,-0.0423014,0.400281,-0.00751781
1413393226955760384,-2.21231,-0.327123,1.5927,0.527247,-0.339708,-0.744128,-0.229963,-0.336208,0.215127,-0.078292,-0.00159552,0.0162408,0.0517772,-0.041051,0.400723,-0.00534015
1413393227005760512,-2.22934,-0.316249,1.58866,0.527184,-0.337947,-0.744728,-0.230757,-0.345855,0.215748,-0.0748946,-0.001619,0.0163005,0.0518404,-0.0410051,0.400811,-0.00308661
1413393227055760384,-2.24701,-0.305457,1.58513,0.528053,-0.337474,-0.744384,-0.230573,-0.363082,0.213943,-0.0649976,-0.00160088,0.016369,0.0519272,-0.0407313,0.40355,-0.00117113
1413393227105760512,-2.26551,-0.295042,1.58221,0.529821,-0.337066,-0.743441,-0.230158,-0.37644,0.201364,-0.0657294,-0.00153424,0.0163925,0.0519619,-0.0398784,0.406518,0.0026963
1413393227155760384,-2.28468,-0.285193,1.57964,0.531802,-0.337876,-0.742297,-0.228082,-0.38711,0.197173,-0.04963,-0.001586,0.0164566,0.0520006,-0.0406725,0.404781,0.00451421
1413393227205760512,-2.30429,-0.275392,1.57768,0.53381,-0.338604,-0.741188,-0.225909,-0.392548,0.196301,-0.0282261,-0.00158459,0.016504,0.0520597,-0.040289,0.404124,0.00658997
1413393227255760384,-2.32404,-0.265647,1.57656,0.536543,-0.340782,-0.739309,-0.222287,-0.391618,0.19666,-0.00253982,-0.00156495,0.0165633,0.0521318,-0.0399036,0.403714,0.00843103
1413393227305760512,-2.34358,-0.256124,1.5758,0.53683,-0.342176,-0.739001,-0.220469,-0.389476,0.191186,-0.0111502,-0.00159249,0.0166111,0.0522026,-0.0400195,0.401733,0.0094211
1413393227355760384,-2.36299,-0.24652,1.57576,0.537883,-0.343072,-0.738109,-0.219498,-0.386421,0.188303,-0.00031114,-0.00151279,0.0166138,0.0522746,-0.0379526,0.405715,0.0114455
1413393227405760512,-2.38223,-0.236911,1.57556,0.537548,-0.344503,-0.738157,-0.217907,-0.379536,0.197384,0.00404117,-0.00158753,0.0166849,0.0523135,-0.0391188,0.402404,0.0129941
1413393227455760384,-2.40121,-0.22692,1.57557,0.537699,-0.346109,-0.737752,-0.216359,-0.377987,0.202631,0.00180707,-0.00160168,0.0167174,0.0523423,-0.0386806,0.402216,0.0161361
1413393227505760512,-2.42015,-0.216771,1.57575,0.537835,-0.346934,-0.737401,-0.215894,-0.375189,0.203118,-0.00372212,-0.00158218,0.0167554,0.0524158,-0.0380968,0.402081,0.0190963
1413393227555760384,-2.43864,-0.206265,1.57608,0.538835,-0.348835,-0.735747,-0.215983,-0.364267,0.213516,0.000271472,-0.00158984,0.0166746,0.0524583,-0.0364277,0.400684,0.0219457
1413393227605760512,-2.45664,-0.195506,1.57662,0.539374,-0.351915,-0.733715,-0.216551,-0.353641,0.219224,0.00399651,-0.00159231,0.0166451,0.0525296,-0.0351821,0.400457,0.0248407
1413393227655760384,-2.47396,-0.184145,1.57697,0.538765,-0.355318,-0.731965,-0.218425,-0.338866,0.236235,0.0141373,-0.00157364,0.0166424,0.0525784,-0.0342764,0.400565,0.0280384
1413393227705760512,-2.49046,-0.171989,1.57721,0.537167,-0.360127,-0.730061,-0.220842,-0.319509,0.251745,0.0145358,-0.00157976,0.0166219,0.052646,-0.0330722,0.40035,0.031927
1413393227755760384,-2.50601,-0.159376,1.57748,0.535842,-0.366216,-0.727163,-0.223592,-0.298468,0.261145,0.00909715,-0.00158425,0.0166141,0.0527231,-0.0310147,0.40029,0.0350854
1413393227805760512,-2.52034,-0.146212,1.57812,0.533382,-0.371676,-0.724789,-0.228125,-0.278269,0.266319,-0.00150323,-0.00155333,0.0166007,0.0527396,-0.0293724,0.401398,0.0368124
1413393227855760384,-2.53355,-0.13253,1.57839,0.532112,-0.379695,-0.720615,-0.231091,-0.255557,0.284216,0.000854041,-0.00151093,0.0165341,0.0528079,-0.0260397,0.403825,0.040804
1413393227905760512,-2.54604,-0.118263,1.57872,0.529796,-0.387209,-0.716836,-0.235654,-0.248703,0.292069,0.0147187,-0.00146778,0.0165787,0.0528396,-0.0243794,0.405859,0.0438435
1413393227955760384,-2.5578,-0.103457,1.57916,0.528274,-0.395458,-0.711776,-0.240654,-0.229674,0.298615,0.0101875,-0.00140623,0.0166424,0.0528841,-0.022844,0.408547,0.0479017
1413393228005760512,-2.56865,-0.0881175,1.57884,0.525375,-0.404923,-0.706759,-0.24599,-0.209002,0.312747,-0.0109371,-0.00140088,0.0166217,0.0529421,-0.0200274,0.409946,0.0532206
1413393228055760384,-2.57904,-0.0724098,1.57822,0.521664,-0.413631,-0.701803,-0.253475,-0.21408,0.317105,-0.0236179,-0.0014151,0.0166436,0.0529803,-0.0185987,0.410132,0.0585968
1413393228105760512,-2.58926,-0.0562312,1.57691,0.51812,-0.42319,-0.696404,-0.259777,-0.204672,0.32721,-0.00474496,-0.0013958,0.0166462,0.0530229,-0.0166946,0.410474,0.0640166
1413393228155760384,-2.59908,-0.0397631,1.57573,0.512816,-0.432278,-0.69188,-0.267317,-0.188741,0.329573,-0.031988,-0.00132976,0.0166917,0.0530776,-0.015484,0.410051,0.0678894
1413393228205760512,-2.6085,-0.0230674,1.57407,0.507741,-0.441578,-0.687395,-0.273306,-0.188401,0.331464,-0.0248102,-0.00118101,0.0166861,0.0530681,-0.0133064,0.412235,0.0717799
1413393228255760384,-2.61748,-0.00623005,1.57269,0.502668,-0.448309,-0.68396,-0.280255,-0.175285,0.335966,-0.0199192,-0.00111185,0.0167699,0.0531412,-0.0135478,0.411851,0.0774749
1413393228305760512,-2.62597,0.0110481,1.57133,-0.49822,0.454472,0.680502,0.286618,-0.166809,0.340944,-0.0165522,-0.00111095,0.0167997,0.0531858,-0.0117266,0.411762,0.0850859
1413393228355760384,-2.63404,0.0286324,1.57049,-0.494163,0.45992,0.67724,0.292613,-0.162498,0.349653,-0.00615829,-0.00111454,0.0167628,0.0532404,-0.00899425,0.411632,0.093586
1413393228405760512,-2.64164,0.0466298,1.57006,-0.490147,0.46566,0.673567,0.298703,-0.143189,0.36043,-0.000345114,-0.00105787,0.0167994,0.0533131,-0.00730343,0.412307,0.0998151
1413393228455760384,-2.64881,0.0648861,1.56979,-0.48667,0.472014,0.669097,0.304408,-0.136517,0.370925,0.0100707,-0.00106329,0.0168311,0.0533261,-0.00662926,0.41094,0.106368
1413393228505760512,-2.65584,0.0834785,1.57041,-0.484644,0.477281,0.663996,0.310536,-0.143656,0.370422,0.0168322,-0.000996416,0.0169343,0.0533679,-0.00596498,0.41151,0.110833
1413393228555760384,-2.66248,0.102045,1.57126,-0.482251,0.483215,0.659044,0.315593,-0.12037,0.374728,0.0190116,-0.000996273,0.0169009,0.0533833,-0.00299444,0.410659,0.115307
1413393228605760512,-2.66871,0.120734,1.57217,-0.478371,0.4894,0.655155,0.320033,-0.121313,0.374353,0.0301092,-0.000956229,0.0169575,0.0534434,-0.000508952,0.411351,0.120248
1413393228655760384,-2.67504,0.139227,1.57374,-0.475817,0.494808,0.651582,0.322807,-0.128313,0.370599,0.0403401,-0.000980765,0.0170037,0.0534507,0.00204452,0.4099,0.125093
1413393228705760512,-2.68123,0.157669,1.5758,-0.472373,0.499055,0.649486,0.325541,-0.114276,0.376747,0.0342946,-0.0010008,0.0169691,0.0534847,0.00640514,0.408317,0.130094
1413393228755760384,-2.68739,0.176467,1.57782,-0.469605,0.502907,0.647684,0.327201,-0.123382,0.377175,0.0404304,-0.00105742,0.0169478,0.0535446,0.00970841,0.406173,0.134565
1413393228805760512,-2.69366,0.195547,1.5793,-0.467028,0.507392,0.646898,0.325517,-0.127988,0.381723,0.0252834,-0.00110173,0.0169327,0.0535869,0.0131853,0.405588,0.139388
1413393228855760384,-2.69967,0.214659,1.58017,-0.464315,0.511446,0.646456,0.323928,-0.114371,0.376297,0.0149559,-0.0010103,0.0169684,0.0536174,0.0165171,0.409361,0.143525
1413393228905760512,-2.70531,0.23348,1.58062,-0.460934,0.515418,0.647228,0.320906,-0.108317,0.382514,0.0169126,-0.000994923,0.0170115,0.053675,0.0188643,0.411366,0.147563
1413393228955760384,-2.7107,0.252872,1.5814,-0.459613,0.51738,0.64719,0.319717,-0.107666,0.394562,0.0033537,-0.000998395,0.0170157,0.0536901,0.0211766,0.41146,0.149549
1413393229005760512,-2.71581,0.273277,1.58166,-0.457588,0.517005,0.648084,0.321413,-0.0915908,0.422465,0.00756648,-0.000983763,0.0170377,0.0537488,0.0227496,0.412563,0.152385
1413393229055760384,-2.72084,0.29497,1.58166,-0.454991,0.514384,0.649929,0.325553,-0.10348,0.449257,-0.0181305,-0.00103526,0.0170187,0.0537994,0.0254213,0.412249,0.155014
1413393229105760512,-2.72608,0.317699,1.58026,-0.454229,0.511104,0.650893,0.329828,-0.106916,0.462439,-0.0437543,-0.0010374,0.0170617,0.0538468,0.0267797,0.413753,0.157644
1413393229155760384,-2.7316,0.340924,1.57794,-0.45306,0.508025,0.652147,0.333695,-0.111936,0.463627,-0.0336117,-0.001023,0.0171287,0.0538854,0.0282225,0.415785,0.161084
1413393229205760512,-2.73791,0.364078,1.57551,-0.452256,0.505093,0.653346,0.336875,-0.14204,0.463047,-0.0602667,-0.00103389,0.0171793,0.0539512,0.0309258,0.417755,0.164536
1413393229255760384,-2.74546,0.38737,1.57224,-0.451663,0.502094,0.654719,0.339478,-0.163629,0.460312,-0.0738997,-0.000996697,0.0172005,0.0539885,0.0340947,0.420337,0.167844
1413393229305760512,-2.75404,0.410408,1.56825,-0.451974,0.499766,0.655146,0.341667,-0.178495,0.456699,-0.0845587,-0.000974223,0.0172487,0.0540358,0.0373911,0.422058,0.170968
1413393229355760384,-2.76407,0.433211,1.56365,-0.452975,0.498003,0.655208,0.342795,-0.219643,0.458533,-0.0976151,-0.000978401,0.0172795,0.0540877,0.0407433,0.422995,0.173945
1413393229405760512,-2.77544,0.456059,1.55818,-0.455214,0.497198,0.654493,0.342364,-0.243442,0.455242,-0.113779,-0.00095135,0.0172515,0.0541452,0.0456173,0.423017,0.176982
1413393229455760384,-2.78815,0.478671,1.55252,-0.459089,0.497929,0.652318,0.340273,-0.257743,0.447427,-0.113085,-0.000964001,0.0172424,0.0541761,0.0496412,0.422204,0.179457
1413393229505760512,-2.80169,0.50093,1.54694,-0.463324,0.499527,0.650059,0.336493,-0.283422,0.437856,-0.117459,-0.00096002,0.0172504,0.0542079,0.0534389,0.42103,0.181357
1413393229555760384,-2.81602,0.522693,1.54153,-0.465825,0.501695,0.648738,0.332338,-0.28736,0.436422,-0.10749,-0.00094663,0.0172671,0.0542588,0.0562746,0.419544,0.18298
1413393229605760512,-2.83006,0.544495,1.53603,-0.467954,0.504671,0.647497,0.327221,-0.272096,0.44031,-0.102371,-0.00093307,0.0172786,0.0543132,0.0597335,0.418549,0.185427
1413393229655760384,-2.84397,0.566496,1.53081,-0.468459,0.507561,0.64747,0.322041,-0.279753,0.438035,-0.104026,-0.00091856,0.0172802,0.0543503,0.0635219,0.417732,0.188411
1413393229705760512,-2.85745,0.588774,1.52602,-0.467152,0.509336,0.648725,0.318594,-0.262883,0.450003,-0.0967874,-0.000914815,0.0172488,0.0544192,0.0678849,0.416568,0.191631
1413393229755760384,-2.87058,0.611506,1.52176,-0.465718,0.510828,0.650066,0.315555,-0.262264,0.455565,-0.082885,-0.000925535,0.0171991,0.0544681,0.0709661,0.414765,0.19435
1413393229805760512,-2.88354,0.634677,1.51774,-0.463104,0.512651,0.652064,0.312307,-0.253622,0.471767,-0.0715348,-0.000916263,0.0171411,0.0545097,0.0739157,0.413292,0.196736
1413393229855760384,-2.89584,0.658634,1.51427,-0.459901,0.513897,0.654673,0.309522,-0.240095,0.485768,-0.0547954,-0.000876778,0.017116,0.0545608,0.0758694,0.412077,0.198598
1413393229905760512,-2.90775,0.683132,1.51176,-0.457301,0.514913,0.656726,0.30733,-0.235096,0.495508,-0.0408892,-0.000913685,0.0171196,0.0546076,0.0754765,0.409334,0.200393
1413393229955760384,-2.9194,0.708727,1.51034,-0.455575,0.514403,0.658441,0.307078,-0.234111,0.526246,-0.0312806,-0.000919705,0.0171006,0.0546429,0.0754195,0.407029,0.201936
1413393230005760512,-2.93091,0.735607,1.50995,-0.45374,0.512391,0.660218,0.309335,-0.223785,0.555508,0.0143215,-0.000979152,0.0171173,0.0547052,0.0744292,0.403165,0.202722
1413393230055760384,-2.94245,0.76418,1.51041,-0.452948,0.507639,0.66179,0.314921,-0.240429,0.581773,0.0144501,-0.000979809,0.0170765,0.0547249,0.0749432,0.401288,0.205001
1413393230105760512,-2.9545,0.793737,1.51098,-0.452568,0.5032,0.662947,0.320113,-0.242415,0.600676,0.0026882,-0.00103734,0.0170735,0.0547839,0.0737581,0.397287,0.205501
1413393230155760384,-2.967,0.82426,1.51097,-0.452683,0.499703,0.663558,0.324138,-0.257036,0.615882,-0.000815734,-0.00104515,0.0170474,0.0548437,0.073546,0.39492,0.207445
1413393230205760512,-2.98026,0.855212,1.5102,-0.45252,0.496572,0.664523,0.327187,-0.280221,0.61723,-0.0178815,-0.0010887,0.0170618,0.0548608,0.0714532,0.391602,0.208063
1413393230255760384,-2.99458,0.886309,1.5092,-0.453935,0.494196,0.664222,0.329428,-0.294709,0.621873,-0.0336467,-0.00113471,0.0170485,0.0549061,0.0714539,0.388701,0.20966
1413393230305760512,-3.00977,0.917292,1.50755,-0.45627,0.492487,0.663374,0.330468,-0.311148,0.621166,-0.0360431,-0.00115633,0.0170413,0.0549705,0.0717588,0.38584,0.210056
1413393230355760384,-3.02557,0.948161,1.50469,-0.458148,0.493396,0.662469,0.328323,-0.321542,0.613,-0.0682766,-0.00116709,0.017067,0.0550039,0.0721464,0.383574,0.211322
1413393230405760512,-3.0419,0.979094,1.50157,-0.460858,0.494203,0.660868,0.326539,-0.331876,0.619219,-0.0710522,-0.00118987,0.0170738,0.0550492,0.0728158,0.381053,0.211985
1413393230455760384,-3.05858,1.01042,1.49804,-0.46202,0.496206,0.659414,0.324792,-0.33468,0.636373,-0.0674007,-0.00118997,0.0170918,0.055113,0.0736031,0.378471,0.213027
1413393230505760512,-3.0753,1.04237,1.49452,-0.463046,0.50012,0.656602,0.323021,-0.335747,0.644811,-0.0483614,-0.00120554,0.0171088,0.0551821,0.0745989,0.375745,0.214843
1413393230555760384,-3.0917,1.0751,1.49126,-0.46288,0.505348,0.653039,0.322343,-0.324096,0.653829,-0.0718614,-0.00120885,0.0171453,0.0552115,0.0755998,0.37374,0.217586
1413393230605760512,-3.1074,1.10827,1.48823,-0.462204,0.511621,0.648476,0.322631,-0.309908,0.671805,-0.0630578,-0.00119133,0.0171857,0.0552469,0.0767573,0.371783,0.2211
1413393230655760384,-3.1226,1.14242,1.48593,-0.460532,0.519259,0.643203,0.323373,-0.30269,0.676239,-0.0411211,-0.0011745,0.0172041,0.0552776,0.0776901,0.36953,0.224619
1413393230705760512,-3.13721,1.17709,1.48468,-0.457843,0.52607,0.638089,0.326302,-0.285846,0.699641,0.0091501,-0.00117664,0.0172352,0.0553504,0.0783835,0.367057,0.228128
1413393230755760384,-3.15072,1.21171,1.48575,-0.45523,0.533962,0.631809,0.329343,-0.260042,0.696362,0.0203453,-0.00115195,0.0172696,0.0553504,0.0777422,0.364288,0.230429
1413393230805760512,-3.16312,1.24603,1.48728,-0.452194,0.541702,0.625398,0.333102,-0.246829,0.700745,0.0346406,-0.00113695,0.0173174,0.0553862,0.0775748,0.361193,0.232146
1413393230855760384,-3.17437,1.28114,1.4889,-0.447572,0.549271,0.61934,0.33823,-0.21402,0.715495,0.0436832,-0.0010921,0.0173919,0.0555049,0.0773596,0.359336,0.23466
1413393230905760512,-3.18452,1.31689,1.49136,-0.441997,0.556413,0.613216,0.344979,-0.199183,0.72683,0.0701587,-0.00107033,0.0174255,0.0555531,0.0766715,0.356478,0.236358
1413393230955760384,-3.19367,1.3533,1.49464,-0.434721,0.561887,0.608585,0.353448,-0.178619,0.733841,0.081646,-0.00107595,0.0174836,0.055618,0.0755681,0.353654,0.237982
1413393231005760512,-3.20195,1.3902,1.49832,-0.426852,0.566044,0.604879,0.362649,-0.159359,0.737258,0.0938456,-0.00107017,0.0175052,0.0555885,0.0739937,0.351024,0.239305
1413393231055760384,-3.20968,1.42737,1.50247,-0.418846,0.568847,0.602408,0.371599,-0.157711,0.749458,0.0832462,-0.00100088,0.0175889,0.0556264,0.0726397,0.350035,0.240972
1413393231105760512,-3.21794,1.46482,1.50712,-0.412909,0.570927,0.599586,0.379534,-0.175881,0.74972,0.082991,-0.00099045,0.0175908,0.0556609,0.0717819,0.348185,0.243189
1413393231155760384,-3.22683,1.50256,1.5119,-0.407736,0.572664,0.597335,0.386003,-0.185927,0.756328,0.0982571,-0.000987103,0.0176152,0.0556386,0.070192,0.346672,0.245247
1413393231205760512,-3.23652,1.5404,1.51663,-0.404177,0.575104,0.594865,0.389913,-0.204417,0.767136,0.100297,-0.00131142,0.0175564,0.0556826,0.0677896,0.340907,0.243787
1413393231255760384,-3.24744,1.5788,1.52178,-0.40087,0.576605,0.593155,0.393697,-0.243427,0.769695,0.098745,-0.00151406,0.0175419,0.0556951,0.0653786,0.337189,0.242885
1413393231305760512,-3.25947,1.61685,1.52629,-0.400427,0.578828,0.590338,0.395118,-0.257636,0.763872,0.0582471,-0.00167701,0.0176617,0.055685,0.0627049,0.335031,0.243873
1413393231355760384,-3.27186,1.65464,1.5281,-0.401356,0.58139,0.587303,0.394935,-0.272605,0.76632,0.014539,-0.00171901,0.0177397,0.0556709,0.0617647,0.334841,0.243711
1413393231405760512,-3.28509,1.69323,1.52743,-0.404023,0.583976,0.583604,0.393884,-0.29173,0.774601,-0.0174265,-0.00178485,0.0177611,0.0554368,0.0615689,0.334379,0.244379
1413393231455760384,-3.29925,1.732,1.52494,-0.408817,0.585972,0.578607,0.393344,-0.288176,0.777237,-0.0447923,-0.00185729,0.0178211,0.0554015,0.0621089,0.333404,0.245769
1413393231505760512,-3.31389,1.77074,1.5214,-0.415466,0.586815,0.572622,0.39388,-0.298455,0.769846,-0.0846128,-0.00183539,0.01783,0.0553398,0.0632933,0.332568,0.247587
1413393231555760384,-3.32873,1.80937,1.51615,-0.423653,0.585639,0.566289,0.396058,-0.30309,0.764819,-0.130841,-0.0018913,0.0179064,0.0554088,0.0649671,0.331721,0.250552
1413393231605760512,-3.34309,1.8477,1.50961,-0.431109,0.58465,0.560198,0.39813,-0.279291,0.742373,-0.161364,-0.00160194,0.0179871,0.0555431,0.0686528,0.334495,0.258626
1413393231655760384,-3.35699,1.88431,1.50141,-0.435846,0.584517,0.555406,0.39988,-0.275979,0.711511,-0.177705,-0.00154701,0.0180093,0.0556381,0.0711292,0.333641,0.262862
1413393231705760512,-3.36992,1.91922,1.49243,-0.436886,0.585142,0.552805,0.40143,-0.249091,0.6781,-0.179936,-0.00150489,0.0180774,0.0557466,0.072879,0.33273,0.266367
1413393231755760384,-3.38161,1.95229,1.48326,-0.435069,0.588084,0.550694,0.402005,-0.215962,0.643666,-0.169972,-0.0014738,0.018024,0.0558234,0.0753484,0.331074,0.269775
1413393231805760512,-3.3924,1.98344,1.47505,-0.432461,0.592442,0.548664,0.401195,-0.210142,0.602072,-0.164415,-0.00145888,0.017997,0.0557969,0.0750403,0.328347,0.271216
1413393231855760384,-3.40198,2.01268,1.46737,-0.430266,0.598387,0.545792,0.398642,-0.17361,0.569179,-0.155996,-0.00144716,0.0181103,0.0557784,0.0724118,0.326266,0.271337
1413393231905760512,-3.40996,2.04066,1.45989,-0.425969,0.606355,0.542697,0.39543,-0.134096,0.546908,-0.13583,-0.00140736,0.0180897,0.0557728,0.0698395,0.323584,0.270469
1413393231955760384,-3.41601,2.06744,1.45321,-0.42252,0.613888,0.53853,0.393196,-0.108009,0.536644,-0.126664,-0.00139814,0.0182768,0.0558258,0.0653498,0.322466,0.269114
1413393232005760512,-3.42017,2.0937,1.44743,-0.418562,0.621263,0.533751,0.392362,-0.0617213,0.509416,-0.124461,-0.00141131,0.0183515,0.0559812,0.0643857,0.320622,0.272953
1413393232055760384,-3.42215,2.11971,1.44183,-0.412409,0.627558,0.529902,0.394072,-0.0192907,0.509185,-0.0926642,-0.00141936,0.0183912,0.0561101,0.0662555,0.318496,0.280426
1413393232105760512,-3.4224,2.14512,1.43795,-0.405976,0.633169,0.525763,0.397309,0.0106548,0.48776,-0.0726995,-0.00138745,0.0184372,0.0562751,0.0664599,0.316134,0.287425
1413393232155760384,-3.42092,2.16967,1.43397,-0.39941,0.638766,0.520805,0.401513,0.0495426,0.473743,-0.0796104,-0.00133788,0.0185185,0.0564429,0.0651303,0.314039,0.292299
1413393232205760512,-3.41792,2.19379,1.43036,-0.392336,0.642363,0.515934,0.408969,0.079422,0.474425,-0.0743492,-0.00131169,0.0185386,0.056508,0.0636143,0.310462,0.296839
1413393232255760384,-3.41362,2.21736,1.42584,-0.386021,0.646591,0.510133,0.41554,0.101879,0.467873,-0.106902,-0.0013043,0.0184816,0.0564418,0.060599,0.307002,0.297743
1413393232305760512,-3.40782,2.24066,1.41989,-0.380038,0.650996,0.503825,0.421825,0.134456,0.460406,-0.136626,-0.00132465,0.0184879,0.0563674,0.0583867,0.304363,0.299279
1413393232355760384,-3.40076,2.26376,1.41254,-0.375141,0.656781,0.496116,0.426354,0.152447,0.458854,-0.168482,-0.00134394,0.0184698,0.0563456,0.0557234,0.301848,0.300952
1413393232405760512,-3.39251,2.28657,1.40373,-0.369228,0.662797,0.489679,0.429634,0.179417,0.454636,-0.180091,-0.00137904,0.0183781,0.0562651,0.0547471,0.299427,0.302201
1413393232455760384,-3.38305,2.30909,1.39357,-0.36341,0.668504,0.482979,0.43332,0.20073,0.44567,-0.214237,-0.0013994,0.0183439,0.0562536,0.0528968,0.29792,0.30363
1413393232505760512,-3.37273,2.33161,1.38198,-0.358241,0.674434,0.476116,0.436023,0.216795,0.44998,-0.242204,-0.0014384,0.0182928,0.0562767,0.051813,0.295759,0.306926
1413393232555760384,-3.36151,2.35424,1.36969,-0.353956,0.679025,0.470346,0.438652,0.23381,0.455447,-0.271496,-0.00144921,0.0182635,0.0562823,0.0503588,0.294404,0.307793
1413393232605760512,-3.34951,2.37713,1.35548,-0.35029,0.682479,0.46599,0.440877,0.242819,0.452228,-0.29583,-0.00145607,0.0182806,0.0563318,0.0501911,0.293924,0.312706
1413393232655760384,-3.33674,2.39976,1.34139,-0.348001,0.685827,0.461183,0.442547,0.271177,0.451517,-0.270199,-0.00145572,0.0183001,0.0563859,0.0501848,0.293333,0.316397
1413393232705760512,-3.32317,2.42253,1.32838,-0.346033,0.687965,0.457576,0.44451,0.276177,0.456883,-0.258274,-0.00144688,0.0182954,0.0564475,0.0508252,0.291173,0.320304
1413393232755760384,-3.30879,2.4452,1.31614,-0.343127,0.689123,0.456002,0.446582,0.296905,0.452485,-0.23221,-0.00143445,0.0182909,0.0565055,0.0508545,0.288957,0.323044
1413393232805760512,-3.29334,2.46779,1.30457,-0.340861,0.690532,0.454425,0.447747,0.326457,0.461622,-0.226245,-0.00142995,0.0182929,0.0565556,0.051387,0.288181,0.32398
1413393232855760384,-3.27686,2.49135,1.29389,-0.339754,0.691232,0.452885,0.449067,0.333077,0.474034,-0.215802,-0.00143003,0.0183085,0.0565941,0.0527063,0.286553,0.327651
1413393232905760512,-3.2596,2.51467,1.28339,-0.337433,0.692097,0.453217,0.44915,0.354826,0.469859,-0.203871,-0.00142619,0.0183285,0.0566149,0.0533614,0.286257,0.329693
1413393232955760384,-3.24146,2.53817,1.27474,-0.333711,0.691322,0.454874,0.451443,0.375523,0.471041,-0.158565,-0.00143007,0.0183194,0.0566411,0.0540883,0.284471,0.329736
1413393233005760512,-3.22263,2.56236,1.26763,-0.330437,0.69094,0.456749,0.452541,0.383345,0.486935,-0.126345,-0.00142407,0.0183097,0.0566773,0.0551707,0.280755,0.33379
1413393233055760384,-3.20327,2.58708,1.26274,-0.327126,0.689967,0.45933,0.453818,0.392844,0.497439,-0.0871414,-0.0014239,0.018296,0.0567368,0.0569831,0.276824,0.337787
1413393233105760512,-3.18348,2.61159,1.25922,-0.324455,0.6897,0.4614,0.454042,0.407679,0.491915,-0.0543794,-0.00143043,0.018261,0.0567693,0.0561565,0.274806,0.33353
1413393233155760384,-3.16317,2.63673,1.25764,-0.323194,0.689051,0.462684,0.454617,0.407469,0.506796,-0.0120792,-0.0014338,0.0182716,0.0567978,0.0564361,0.273231,0.335694
1413393233205760512,-3.14235,2.66257,1.25823,-0.322502,0.688123,0.463091,0.456098,0.415021,0.523901,0.0397708,-0.00143053,0.018288,0.0568287,0.0580554,0.273384,0.339791
1413393233255760384,-3.121,2.68866,1.26162,-0.321247,0.686146,0.462704,0.460337,0.433038,0.515641,0.0801007,-0.00142611,0.0183067,0.0568722,0.0588164,0.272702,0.342186
1413393233305760512,-3.09952,2.71473,1.26688,-0.320724,0.684999,0.460237,0.464859,0.428814,0.5289,0.124454,-0.00142856,0.0183208,0.0568933,0.0582348,0.271405,0.342785
1413393233355760384,-3.07805,2.74104,1.2742,-0.320351,0.683634,0.456598,0.470678,0.436403,0.527367,0.178053,-0.00144614,0.018318,0.0569162,0.0591083,0.268589,0.344659
1413393233405760512,-3.05643,2.76696,1.28318,-0.320114,0.683195,0.451329,0.476523,0.433885,0.510058,0.188214,-0.00144096,0.0183353,0.0569609,0.0599062,0.266293,0.346925
1413393233455760384,-3.0352,2.79246,1.29378,-0.321191,0.685017,0.443043,0.480939,0.426042,0.505677,0.236987,-0.00143392,0.0183485,0.0570129,0.060903,0.263509,0.349683
1413393233505760512,-3.01417,2.81719,1.30726,-0.317881,0.686627,0.437667,0.485739,0.419428,0.474607,0.280633,-0.00143218,0.0183607,0.0570529,0.0617543,0.260537,0.352301
1413393233555760384,-2.99324,2.84036,1.32186,-0.314765,0.690503,0.430934,0.488288,0.41892,0.451038,0.285613,-0.00142791,0.0183765,0.0571135,0.0626955,0.260785,0.353529
1413393233605760512,-2.97225,2.863,1.33715,-0.308019,0.694728,0.425984,0.490933,0.417594,0.454237,0.330726,-0.00142588,0.0183742,0.0571553,0.0641106,0.260544,0.356175
1413393233655760384,-2.95184,2.88499,1.35366,-0.299878,0.700631,0.420938,0.491936,0.40959,0.446354,0.362413,-0.00142459,0.0184083,0.0572272,0.0662382,0.258821,0.360859
1413393233705760512,-2.93201,2.90607,1.37214,-0.291667,0.707257,0.415141,0.492317,0.392296,0.441451,0.394112,-0.00141397,0.0184127,0.0572469,0.0659845,0.263254,0.357406
1413393233755760384,-2.91249,2.92842,1.39378,-0.283622,0.710963,0.408977,0.496818,0.376561,0.451269,0.452562,-0.00140387,0.0184222,0.0572997,0.0685867,0.264437,0.361871
1413393233805760512,-2.89453,2.95056,1.41668,-0.27975,0.715025,0.399878,0.500577,0.347742,0.441603,0.471754,-0.00140229,0.0184382,0.057339,0.0700417,0.264933,0.363603
1413393233855760384,-2.87774,2.97235,1.43985,-0.277177,0.717008,0.391006,0.506149,0.317962,0.455428,0.45814,-0.00139213,0.0184268,0.0573606,0.0689689,0.269465,0.360058
1413393233905760512,-2.86237,2.99462,1.46267,-0.277713,0.71943,0.381073,0.50998,0.300668,0.452472,0.455359,-0.00140193,0.0183998,0.0573842,0.0691953,0.269288,0.360332
1413393233955760384,-2.84771,3.01678,1.48536,-0.275988,0.721832,0.370907,0.514992,0.294593,0.43381,0.448503,-0.00142169,0.0184088,0.0574101,0.0701365,0.266167,0.36395
1413393234005760512,-2.83404,3.03825,1.50734,-0.274176,0.726148,0.362236,0.516065,0.269697,0.432509,0.454999,-0.0014205,0.0184254,0.0574349,0.0706053,0.263243,0.365693
1413393234055760384,-2.82086,3.05939,1.52984,-0.271781,0.731359,0.353588,0.51597,0.2577,0.4154,0.444729,-0.00141821,0.0184459,0.0574763,0.0728013,0.259405,0.371318
1413393234105760512,-2.80828,3.07928,1.55138,-0.267813,0.737237,0.345384,0.515235,0.253113,0.391388,0.431726,-0.00142081,0.0184534,0.0575175,0.0746687,0.257464,0.373121
1413393234155760384,-2.79639,3.09877,1.57222,-0.263026,0.743078,0.338207,0.514071,0.240937,0.377484,0.391702,-0.00142842,0.0184807,0.0575441,0.0777567,0.250856,0.378227
1413393234205760512,-2.78477,3.11659,1.59084,-0.261243,0.747184,0.330311,0.514163,0.246596,0.353389,0.37164,-0.00142794,0.0184826,0.0576031,0.0790444,0.247296,0.37562
1413393234255760384,-2.77256,3.13328,1.60862,-0.263439,0.748737,0.319207,0.517783,0.262279,0.321615,0.342768,-0.00143564,0.0184585,0.0576235,0.083299,0.244563,0.374541
1413393234305760512,-2.76245,3.14954,1.6237,-0.268702,0.748971,0.304827,0.523376,0.269081,0.288411,0.318059,-0.0013565,0.018427,0.0576661,0.082868,0.243524,0.363229
1413393234355760384,-2.77281,3.17749,1.61251,-0.270363,0.747393,0.28274,0.536997,0.269443,0.235076,0.294375,-0.000689236,0.0181378,0.0577754,0.042601,0.184183,0.26243
1413393234405760512,-2.75066,3.19362,1.58887,-0.274569,0.744732,0.272249,0.543937,0.259705,0.179278,0.23166,-0.000729496,0.0180426,0.0581073,0.0300242,0.135123,0.222984
1413393234455760384,-2.74216,3.20411,1.60226,-0.276282,0.745869,0.259273,0.547838,0.243525,0.123002,0.192567,-0.000635379,0.0180829,0.0581572,0.0356283,0.110049,0.227112
1413393234505760512,-2.73002,3.20752,1.60974,-0.275801,0.746474,0.249294,0.551873,0.235861,0.0393498,0.149504,-0.000646571,0.0180567,0.0582036,0.0373846,0.109701,0.219544
1413393234555760384,-2.71802,3.20754,1.61812,-0.269988,0.74767,0.242055,0.556332,0.239644,-0.0590948,0.188267,-0.000654021,0.0181045,0.0582504,0.0406751,0.104139,0.219359
1413393234605760512,-2.70629,3.20205,1.62599,-0.25641,0.747859,0.239943,0.563373,0.250359,-0.135682,0.182086,-0.000660024,0.0180824,0.0582598,0.0414118,0.103542,0.211029
1413393234655760384,-2.6933,3.19324,1.63738,-0.234576,0.748748,0.243577,0.570106,0.245685,-0.223195,0.242407,-0.000664108,0.0180823,0.0583246,0.042228,0.103014,0.207226
1413393234705760512,-2.68185,3.18,1.65319,-0.210927,0.75062,0.247433,0.575202,0.213665,-0.300804,0.37877,-0.000675065,0.0181023,0.0583583,0.0430411,0.102475,0.205648
1413393234755760384,-2.6721,3.16446,1.67281,-0.190975,0.755082,0.24879,0.575747,0.177043,-0.336506,0.390988,-0.000683626,0.018127,0.0583852,0.0431425,0.0988399,0.20836
1413393234805760512,-2.66368,3.14755,1.69254,-0.171192,0.760892,0.250103,0.573747,0.146948,-0.346121,0.380308,-0.00067318,0.0181381,0.0584042,0.0422365,0.097928,0.209441
1413393234855760384,-2.6569,3.13057,1.70979,-0.157373,0.768318,0.246504,0.569348,0.126481,-0.347517,0.306546,-0.000682535,0.0181676,0.05844,0.0402051,0.0950577,0.211671
1413393234905760512,-2.65133,3.11438,1.72354,-0.149502,0.775175,0.23829,0.565659,0.11067,-0.337383,0.218757,-0.000664954,0.0181959,0.0584761,0.0389284,0.0898682,0.21411
1413393234955760384,-2.64659,3.0996,1.73243,-0.14416,0.781121,0.228062,0.563077,0.0876802,-0.318674,0.116839,-0.00064385,0.0182283,0.0584962,0.0380507,0.0828186,0.220047
1413393235005760512,-2.64354,3.0853,1.73573,-0.142556,0.787125,0.214307,0.560523,0.0691613,-0.304054,0.0190212,-0.000618254,0.018241,0.0584923,0.0363319,0.0799744,0.221764
1413393235055760384,-2.64221,3.07219,1.73503,-0.141811,0.792189,0.198798,0.55929,0.0620311,-0.29576,-0.0759682,-0.000560994,0.0182788,0.0584799,0.0347406,0.0745697,0.225484
1413393235105760512,-2.67656,3.07473,1.737,-0.130345,0.797762,0.170359,0.563528,0.0458506,-0.302659,-0.160223,0.000416674,0.0182603,0.058208,0.0171129,0.046764,0.189332
1413393235155760384,-2.67531,3.05989,1.7275,-0.126173,0.801455,0.157317,0.563029,0.0536421,-0.304739,-0.231298,0.000444452,0.0182756,0.0582355,0.014921,0.0433086,0.186568
1413393235205760512,-2.6732,3.0449,1.71537,-0.117387,0.803533,0.147513,0.56462,0.0586217,-0.306968,-0.248911,0.000475967,0.0182808,0.0582755,0.0131294,0.0418579,0.181753
1413393235255760384,-2.67109,3.02999,1.70308,-0.104656,0.806256,0.14109,0.564882,0.0618278,-0.308402,-0.264763,0.000512999,0.0183067,0.0583021,0.0119885,0.0374059,0.179278
1413393235305760512,-2.669,3.01568,1.69127,-0.0900211,0.80867,0.136386,0.565109,0.0690157,-0.301934,-0.24033,0.000538667,0.0183149,0.058363,0.00936701,0.0300482,0.176068
1413393235355760384,-2.66697,3.00197,1.68198,-0.0770703,0.811654,0.13238,0.563696,0.0740901,-0.287966,-0.228893,0.00058163,0.0183582,0.0583878,0.00860119,0.0216865,0.176383
1413393235405760512,-2.6655,2.99038,1.67399,-0.0650744,0.815057,0.129557,0.560949,0.0759307,-0.26567,-0.202561,0.000639677,0.0184178,0.058439,0.00910716,0.00643006,0.177542
1413393235455760384,-2.6776,2.996,1.67814,-0.0453765,0.820143,0.120716,0.557435,0.0861622,-0.241025,-0.176111,0.00123938,0.0187298,0.05826,0.0300071,-0.0936751,0.229134
1413393235505760512,-2.67528,2.98965,1.67102,-0.0347106,0.823536,0.118099,0.553748,0.105927,-0.205212,-0.139691,0.00139809,0.0188302,0.0582562,0.0360271,-0.119149,0.242568
1413393235555760384,-2.66458,2.9781,1.66751,-0.0249047,0.823116,0.120104,0.554468,0.13304,-0.156129,-0.0946418,0.0013044,0.0188571,0.0582751,0.0422872,-0.121268,0.257461
1413393235605760512,-2.662,2.97436,1.66434,-0.0115832,0.82064,0.121338,0.558295,0.140423,-0.106297,-0.109495,0.00140229,0.0188932,0.0583028,0.0392649,-0.136178,0.249043
1413393235655760384,-2.65362,2.96996,1.65853,-0.00315185,0.81828,0.121141,0.561901,0.150756,-0.0492049,-0.0860791,0.00137786,0.0189035,0.0583253,0.038105,-0.136918,0.244047
1413393235705760512,-2.64577,2.96923,1.65437,0.00234872,0.81548,0.120405,0.566118,0.146178,0.0179639,-0.0863891,0.00136147,0.0189057,0.0583522,0.037332,-0.138799,0.239448
1413393235755760384,-2.63817,2.97141,1.65001,0.0030304,0.814166,0.116922,0.56873,0.138963,0.0791482,-0.0755138,0.00133102,0.0189174,0.0583922,0.0363972,-0.140079,0.233861
1413393235805760512,-2.63117,2.97662,1.64591,0.000133904,0.813292,0.112252,0.570926,0.123684,0.139897,-0.0677736,0.00132166,0.0189229,0.058419,0.0354538,-0.142573,0.22848
1413393235855760384,-2.62485,2.98454,1.64219,-0.00942394,0.812588,0.103906,0.573424,0.112597,0.179807,-0.0717958,0.00131538,0.0189253,0.0584577,0.0341834,-0.143253,0.222833
1413393235905760512,-2.61912,2.99415,1.63853,-0.0206636,0.81215,0.0932981,0.57557,0.0944841,0.205995,-0.0763843,0.00128102,0.0189411,0.0584953,0.0321889,-0.143749,0.218052
1413393235955760384,-2.61385,3.00488,1.635,-0.0311216,0.811954,0.082156,0.577073,0.0866169,0.224713,-0.067524,0.00126804,0.0189418,0.0585115,0.0296794,-0.144542,0.213973
1413393236005760512,-2.6089,3.01577,1.63238,-0.0370699,0.81089,0.0727554,0.579474,0.0731705,0.218817,-0.0452541,0.00124269,0.0189631,0.0585461,0.0275848,-0.144827,0.211154
1413393236055760384,-2.60415,3.02607,1.62948,-0.0423382,0.810368,0.0620179,0.58109,0.0747172,0.20893,-0.0457932,0.00121442,0.0189646,0.0585617,0.025162,-0.142076,0.206124
1413393236105760512,-2.59852,3.03556,1.62619,-0.0441848,0.810337,0.0523688,0.581945,0.0987719,0.195921,-0.0082251,0.00118102,0.0189638,0.0585734,0.0226731,-0.138034,0.201268
1413393236155760384,-2.59241,3.04348,1.62545,-0.0434457,0.810571,0.042873,0.582452,0.0676165,0.152658,-0.000480995,0.00115693,0.018949,0.0585974,0.0202308,-0.130863,0.198903
1413393236205760512,-2.58761,3.04883,1.62519,-0.0367163,0.81203,0.0359866,0.581347,0.0521543,0.126566,0.0326681,0.00110709,0.018951,0.0586598,0.0165081,-0.123819,0.194345
1413393236255760384,-2.56708,3.03986,1.6103,-0.0353388,0.812685,0.0379843,0.58039,0.0231133,0.116602,0.0749209,0.000529735,0.0187308,0.058941,0.00108813,-0.0543436,0.163366
1413393236305760512,-2.56492,3.04394,1.61256,-0.0219888,0.81417,0.0338083,0.579224,0.0317716,0.0841795,0.0648169,0.000507208,0.0187283,0.0589904,-0.0024404,-0.0519117,0.159898
1413393236355760384,-2.5625,3.04732,1.6156,-0.0107258,0.814992,0.027253,0.578732,0.0309484,0.0863715,0.104004,0.000472472,0.0187315,0.0590535,-0.00610988,-0.0477966,0.156644
1413393236405760512,-2.56053,3.05114,1.61954,-0.00299848,0.816239,0.0191565,0.577389,0.0315853,0.10222,0.107076,0.000448757,0.0187293,0.0591114,-0.00929466,-0.0442634,0.152713
1413393236455760384,-2.55864,3.05528,1.62431,0.00336438,0.816769,0.00963122,0.576875,0.0233261,0.0977722,0.0970189,0.000420277,0.0187361,0.0591707,-0.011921,-0.0411463,0.149237
1413393236505760512,-2.55704,3.0598,1.62863,0.00842271,0.818935,-0.00102667,0.573824,0.0284042,0.09235,0.0975314,0.000410532,0.0187358,0.05921,-0.0144315,-0.0379494,0.14624
1413393236555760384,-2.55512,3.06419,1.63322,0.0138016,0.821881,-0.0113277,0.569379,0.0395761,0.0955587,0.104467,0.000393625,0.0187392,0.0592556,-0.0164033,-0.0331262,0.144498
1413393236605760512,-2.55303,3.06849,1.63794,0.0185857,0.82615,-0.0221305,0.562708,0.0561737,0.0995843,0.106034,0.000375943,0.0187152,0.0592791,-0.0182695,-0.0268075,0.142004
1413393236655760384,-2.54973,3.07311,1.64166,0.0227424,0.829658,-0.0327132,0.556849,0.0872099,0.0992249,0.0547007,0.000380292,0.0187206,0.0592907,-0.0207658,-0.0229253,0.140783
1413393236705760512,-2.54505,3.07804,1.64253,0.0252282,0.831032,-0.0423119,0.554039,0.0980888,0.103391,0.00176928,0.00035537,0.018713,0.0593126,-0.022612,-0.020532,0.140179
1413393236755760384,-2.53961,3.08267,1.64111,0.0254698,0.830863,-0.0526711,0.553393,0.117709,0.0924114,-0.0410128,0.000356289,0.0187225,0.0593453,-0.0232825,-0.0174317,0.140491
1413393236805760512,-2.53338,3.08697,1.63768,0.0244586,0.829073,-0.0638033,0.55495,0.134519,0.0820143,-0.0829318,0.000371699,0.0187209,0.0593467,-0.0242092,-0.0177669,0.140496
1413393236855760384,-2.52639,3.09108,1.63434,0.0257266,0.826794,-0.0720283,0.55728,0.163731,0.0631758,-0.0731301,0.000376481,0.0187408,0.0593993,-0.0252272,-0.0207655,0.141983
1413393236905760512,-2.51799,3.09409,1.6324,0.0284304,0.824509,-0.077871,0.559744,0.185617,0.0362087,-0.00615954,0.00039074,0.0187521,0.0594269,-0.0271558,-0.0263369,0.142372
1413393236955760384,-2.5086,3.0955,1.63249,0.0327908,0.821096,-0.0805826,0.564122,0.21282,0.0019656,0.0318789,0.000396476,0.0187821,0.0594553,-0.0292436,-0.0291791,0.140351
1413393237005760512,-2.49756,3.09533,1.63697,0.0382199,0.818011,-0.080409,0.568271,0.232413,-0.0134996,0.116662,0.000391571,0.0188106,0.059506,-0.0318931,-0.0300354,0.13933
1413393237055760384,-2.48623,3.09449,1.64321,0.0440695,0.815856,-0.0787819,0.571166,0.229725,-0.033589,0.18183,0.000399249,0.0188092,0.0595548,-0.0340615,-0.0325841,0.138234
1413393237105760512,-2.47927,3.10168,1.6593,0.0560689,0.813069,-0.0731179,0.574829,0.235278,-0.0318732,0.255575,0.000471685,0.0189946,0.0596821,-0.0454879,-0.123139,0.112342
1413393237155760384,-2.46805,3.10171,1.67167,0.0650402,0.810461,-0.0674566,0.57825,0.240863,-0.0190116,0.240622,0.000480733,0.0190041,0.0597458,-0.0485709,-0.135958,0.106929
1413393237205760512,-2.4566,3.1019,1.6833,0.0732789,0.808809,-0.0614418,0.580244,0.238661,-0.00293232,0.196931,0.000507054,0.0190078,0.0597539,-0.0516231,-0.145471,0.105745
1413393237255760384,-2.44471,3.1023,1.69163,0.0789286,0.807573,-0.057111,0.581665,0.246448,-0.000670671,0.127601,0.000492399,0.0190539,0.0598314,-0.0557766,-0.153075,0.104049
1413393237305760512,-2.43268,3.10327,1.69595,0.0831567,0.807912,-0.0534906,0.580949,0.237273,0.0268588,0.0721999,0.000492052,0.0190847,0.0598741,-0.0584777,-0.157281,0.101763
1413393237355760384,-2.42112,3.10548,1.69736,0.0855653,0.808337,-0.0502185,0.5803,0.226704,0.0580251,0.00207043,0.000493528,0.0191019,0.0599274,-0.0602772,-0.160678,0.0994735
1413393237405760512,-2.40997,3.10907,1.69574,0.0863518,0.807721,-0.0483326,0.581201,0.21997,0.076827,-0.0647358,0.000482075,0.0191268,0.0599783,-0.0618944,-0.16426,0.0975177
1413393237455760384,-2.39868,3.11406,1.69141,0.0836146,0.807316,-0.0484085,0.582157,0.218576,0.12068,-0.09372,0.000484664,0.0191118,0.0600485,-0.0626461,-0.165305,0.0953037
1413393237505760512,-2.38737,3.12079,1.68625,0.0768874,0.806798,-0.0508598,0.583592,0.220952,0.149629,-0.110483,0.000468687,0.0191171,0.0600793,-0.0631072,-0.166465,0.095949
1413393237555760384,-2.37603,3.12872,1.68072,0.0680076,0.807048,-0.054901,0.583982,0.21371,0.167426,-0.10431,0.000461022,0.0191234,0.0600962,-0.0624723,-0.167317,0.0975201
1413393237605760512,-2.36479,3.13713,1.67538,0.0587427,0.806584,-0.0592264,0.585204,0.211877,0.171045,-0.104085,0.000446985,0.019127,0.0601473,-0.0630029,-0.167582,0.100549
1413393237655760384,-2.35375,3.14534,1.66987,0.0494436,0.807724,-0.0634031,0.584053,0.204367,0.164909,-0.0904675,0.000429788,0.0191267,0.0601681,-0.0632513,-0.168611,0.100592
1413393237705760512,-2.34289,3.15324,1.66476,0.0417906,0.808061,-0.0664543,0.583846,0.196918,0.150799,-0.0959686,0.000396926,0.0191344,0.0602194,-0.0636284,-0.170492,0.100669
1413393237755760384,-2.33247,3.16044,1.66064,0.036651,0.809105,-0.0676978,0.5826,0.18507,0.131663,-0.0826779,0.000378127,0.0191416,0.0602502,-0.0632049,-0.175249,0.105643
1413393237805760512,-2.32251,3.16618,1.65608,0.0331469,0.810032,-0.068035,0.581482,0.186596,0.10766,-0.0583849,0.000337346,0.0191531,0.0602903,-0.0642772,-0.175593,0.107175
1413393237855760384,-2.31275,3.17071,1.65239,0.0327654,0.811741,-0.0662153,0.579326,0.187876,0.0845029,-0.0666435,0.00031234,0.0191565,0.060321,-0.0659031,-0.175578,0.107454
1413393237905760512,-2.30287,3.17437,1.64969,0.0341772,0.813836,-0.0633705,0.576618,0.182328,0.0618606,-0.0418535,0.000293798,0.0191708,0.0603745,-0.0679014,-0.177521,0.105239
1413393237955760384,-2.29324,3.17727,1.64783,0.0364152,0.815318,-0.061164,0.574621,0.177174,0.0365475,-0.0505139,0.000297106,0.0191656,0.0603836,-0.0663988,-0.180076,0.10902
1413393238005760512,-2.28341,3.17864,1.64424,0.0431969,0.818788,-0.055944,0.569729,0.181253,0.0219443,-0.0507753,0.000281858,0.0191646,0.060424,-0.0663918,-0.180998,0.112482
1413393238055760384,-2.27324,3.17944,1.64119,0.0496201,0.821422,-0.0508997,0.565873,0.204131,0.020941,-0.0321451,0.00026973,0.0191464,0.0604397,-0.0674468,-0.179856,0.112983
1413393238105760512,-2.26242,3.17985,1.639,0.0542385,0.823922,-0.0477017,0.562082,0.222269,0.0148878,-0.0285773,0.000261479,0.01916,0.0604823,-0.0680552,-0.175552,0.116572
1413393238155760384,-2.24999,3.18081,1.63836,0.0591382,0.824479,-0.0447413,0.561012,0.236219,0.0130732,-0.000736727,0.000213807,0.0191482,0.0605326,-0.068831,-0.18345,0.114572
1413393238205760512,-2.23676,3.18189,1.63788,0.06277,0.825142,-0.0429835,0.559779,0.267919,0.0338587,0.0116594,0.000184924,0.0191659,0.0605864,-0.0711423,-0.18221,0.114058
1413393238255760384,-2.22241,3.18334,1.64009,0.0653101,0.825429,-0.0420264,0.559139,0.272061,0.0535441,0.0692183,0.000174211,0.0191691,0.0606288,-0.0708224,-0.176954,0.117205
1413393238305760512,-2.20674,3.18535,1.64338,0.0673613,0.825894,-0.042883,0.558142,0.305912,0.0634165,0.13724,0.000140311,0.0191722,0.0606508,-0.0668617,-0.167761,0.121707
1413393238355760384,-2.18946,3.18831,1.65046,0.0674016,0.826447,-0.0443702,0.557202,0.339913,0.0940164,0.17254,0.000115935,0.0191365,0.0606796,-0.0613252,-0.155892,0.126279
1413393238405760512,-2.17049,3.19238,1.65978,0.0667847,0.826213,-0.0463152,0.557465,0.381375,0.111171,0.237994,8.31976e-05,0.0191136,0.0606737,-0.0557218,-0.140164,0.132164
1413393238455760384,-2.13753,3.18825,1.63158,0.0521641,0.828639,-0.0541393,0.554712,0.405705,0.123034,0.260866,-0.000198641,0.0186814,0.0603187,-0.00845489,0.0913452,0.257659
1413393238505760512,-2.11626,3.19421,1.64268,0.0455451,0.827324,-0.060558,0.55659,0.423678,0.136307,0.224615,-0.000221217,0.0186542,0.060334,-0.0056488,0.102144,0.259906
1413393238555760384,-2.09432,3.20062,1.65193,0.0377015,0.824598,-0.0679202,0.56036,0.430352,0.143713,0.167183,-0.000246171,0.0186444,0.0603506,-0.00508557,0.109176,0.260662
1413393238605760512,-2.07185,3.20698,1.65834,0.0290463,0.821891,-0.0755993,0.563859,0.448505,0.129851,0.109858,-0.000252326,0.0186463,0.0603759,-0.00516472,0.113981,0.259687
1413393238655760384,-2.04895,3.21265,1.6624,0.0213017,0.820008,-0.0827271,0.565941,0.457231,0.107165,0.0700913,-0.000273679,0.0186566,0.0603898,-0.00400504,0.116454,0.259591
1413393238705760512,-2.02582,3.21736,1.66409,0.0153732,0.818446,-0.0882489,0.567558,0.457013,0.0815753,0.00778094,-0.00029059,0.0186686,0.0604072,-0.00292695,0.117192,0.259861
1413393238755760384,-2.00311,3.22041,1.66338,0.01111,0.817222,-0.0923707,0.568764,0.451613,0.0419087,-0.0306076,-0.000296091,0.0186738,0.0604434,-0.00176085,0.118021,0.258624
1413393238805760512,-1.98061,3.2214,1.66145,0.0101214,0.816234,-0.0940585,0.569924,0.445615,0.00482863,-0.0444299,-0.000300888,0.0186875,0.0604703,-0.000827464,0.118219,0.256961
1413393238855760384,-1.95856,3.22032,1.65912,0.0122661,0.816058,-0.0934388,0.570235,0.436373,-0.042133,-0.0366831,-0.000306852,0.0187056,0.0604925,-0.000146024,0.119208,0.255717
1413393238905760512,-1.93687,3.21709,1.657,0.017327,0.816311,-0.090704,0.570183,0.439419,-0.0817855,-0.0267126,-0.000310898,0.0187381,0.0605309,0.000597908,0.119906,0.253555
1413393238955760384,-1.91539,3.21216,1.6563,0.0255941,0.816989,-0.0853662,0.569725,0.426699,-0.112818,-0.0110209,-0.000313773,0.0187379,0.06056,0.00130241,0.119971,0.250652
1413393239005760512,-1.89403,3.20595,1.65635,0.034913,0.817191,-0.0798871,0.569735,0.424707,-0.137922,0.00736422,-0.000324526,0.0187193,0.060603,0.00224187,0.119997,0.248315
1413393239055760384,-1.87264,3.19933,1.6562,0.0427627,0.81794,-0.0743733,0.568872,0.434804,-0.122884,0.00434771,-0.000329752,0.0187173,0.0606353,0.00270675,0.120189,0.246401
1413393239105760512,-1.85101,3.19279,1.65618,0.0492774,0.818201,-0.070289,0.568488,0.431633,-0.135085,-0.00687116,-0.000326317,0.0187341,0.0606647,0.00352164,0.120054,0.244885
1413393239155760384,-1.82921,3.18671,1.65614,0.05396,0.818232,-0.067608,0.568344,0.441638,-0.114924,0.0135725,-0.000334282,0.0187376,0.0606961,0.00438739,0.1188,0.242436
1413393239205760512,-1.8069,3.18155,1.65615,0.057822,0.818851,-0.0646618,0.567413,0.452903,-0.0902782,-0.00426368,-0.000350061,0.0187335,0.060722,0.00469971,0.116979,0.241909
1413393239255760384,-1.78437,3.17694,1.65647,0.0597676,0.818531,-0.0640669,0.567741,0.448912,-0.0952839,0.00345187,-0.000344942,0.0187432,0.0607435,0.00588905,0.116642,0.240093
1413393239305760512,-1.76166,3.17292,1.65675,0.0623227,0.818838,-0.0630672,0.567136,0.460354,-0.0682467,0.0122853,-0.000345389,0.0187541,0.0607706,0.00675269,0.116178,0.238359
1413393239355760384,-1.73845,3.17002,1.65728,0.0631214,0.819528,-0.0623097,0.566134,0.468132,-0.0474666,0.0211282,-0.000351902,0.0187782,0.0607963,0.00817547,0.115923,0.23687
1413393239405760512,-1.71479,3.1678,1.65824,0.0636174,0.81973,-0.0625876,0.565755,0.475745,-0.0375089,0.0223065,-0.000345094,0.0187807,0.0608285,0.0095261,0.115006,0.236648
1413393239455760384,-1.69067,3.16677,1.65961,0.0629921,0.820224,-0.06337,0.565022,0.482703,-0.00551853,0.025115,-0.000358104,0.0187661,0.060849,0.0104242,0.114761,0.235442
1413393239505760512,-1.66617,3.16678,1.66209,0.0650564,0.820338,-0.0616249,0.564815,0.492983,0.00851149,0.0546072,-0.000360231,0.0187874,0.0608839,0.0108599,0.114938,0.234573
1413393239555760384,-1.64138,3.16809,1.66477,0.0629124,0.820512,-0.0633775,0.564611,0.495979,0.0349957,0.0549183,-0.000359398,0.0187883,0.060909,0.0106645,0.114302,0.233766
1413393239605760512,-1.61642,3.1708,1.66805,0.0587944,0.82073,-0.0655895,0.564485,0.504559,0.0701033,0.0674302,-0.000369905,0.0187863,0.0609459,0.0108366,0.113631,0.232055
1413393239655760384,-1.59109,3.17428,1.672,0.051593,0.820266,-0.0705625,0.565264,0.514768,0.0694222,0.0927421,-0.000363998,0.0187959,0.0609699,0.0111743,0.113294,0.231235
1413393239705760512,-1.56502,3.17762,1.67613,0.0411151,0.819714,-0.0778499,0.565966,0.526803,0.0596238,0.0933792,-0.000367472,0.0188008,0.0609961,0.0113231,0.113408,0.230368
1413393239755760384,-1.53829,3.1803,1.68072,0.0324024,0.818988,-0.0835461,0.566771,0.539381,0.0506604,0.086286,-0.000372232,0.0188113,0.0610301,0.0124193,0.114263,0.230221
1413393239805760512,-1.51118,3.18177,1.68517,0.0269538,0.818746,-0.0870836,0.566874,0.542938,0.0122055,0.0915275,-0.000368576,0.0188218,0.0610589,0.01409,0.114926,0.231086
1413393239855760384,-1.48405,3.18189,1.68913,0.024152,0.819575,-0.0891461,0.565479,0.540734,-0.0057492,0.0704623,-0.000364356,0.0188391,0.0610783,0.0151263,0.11606,0.231671
1413393239905760512,-1.45678,3.18079,1.69303,0.0259458,0.820433,-0.0876851,0.564384,0.545855,-0.030029,0.0890266,-0.000374842,0.0188645,0.0610992,0.0167266,0.117971,0.233639
1413393239955760384,-1.42924,3.17851,1.69711,0.0274303,0.820654,-0.0865742,0.564162,0.555088,-0.0560777,0.0999229,-0.000380717,0.0188745,0.0611074,0.018275,0.11814,0.235247
1413393240005760512,-1.40129,3.17505,1.70165,0.0316514,0.820206,-0.0834954,0.565057,0.56272,-0.0756351,0.0959352,-0.000383768,0.0188968,0.0611265,0.0197292,0.119102,0.236625
1413393240055760384,-1.3731,3.17087,1.70668,0.0368455,0.819847,-0.0791767,0.565883,0.562406,-0.0897963,0.103952,-0.000389226,0.0189084,0.0611446,0.0209428,0.120042,0.23767
1413393240105760512,-1.34484,3.16611,1.71217,0.044097,0.818754,-0.0737596,0.567676,0.562326,-0.103856,0.113008,-0.000372062,0.018904,0.0611792,0.0222175,0.120703,0.239071
1413393240155760384,-1.31661,3.16133,1.71713,0.0502417,0.81804,-0.0686652,0.568834,0.564128,-0.0914904,0.0815363,-0.000370964,0.0189065,0.061209,0.0226472,0.121068,0.240035
1413393240205760512,-1.28867,3.15696,1.72041,0.054293,0.817314,-0.0648657,0.56995,0.552362,-0.0777218,0.041398,-0.000374579,0.0189016,0.0612277,0.0231661,0.12164,0.242103
1413393240255760384,-1.26095,3.15327,1.72118,0.0570794,0.817833,-0.0621261,0.569238,0.553216,-0.0622831,-0.0104419,-0.000380821,0.0189097,0.0612517,0.0243616,0.121418,0.244574
1413393240305760512,-1.23325,3.15075,1.71899,0.0561786,0.817964,-0.0622929,0.569121,0.557218,-0.0365204,-0.0671629,-0.00038663,0.0188938,0.0612732,0.0256175,0.121454,0.24698
1413393240355760384,-1.20522,3.14907,1.71423,0.0542891,0.817872,-0.0632959,0.569326,0.559805,-0.0240796,-0.123211,-0.000391011,0.0189066,0.0613077,0.0268305,0.120205,0.25013
1413393240405760512,-1.17689,3.14803,1.70675,0.0497142,0.817441,-0.0665897,0.569987,0.57372,-0.0185798,-0.165588,-0.000389848,0.0189276,0.0613482,0.0278199,0.119443,0.254046
1413393240455760384,-1.14841,3.147,1.69749,0.0456515,0.816646,-0.0690737,0.571169,0.569391,-0.0222733,-0.206312,-0.000392351,0.0189434,0.0613781,0.029188,0.119521,0.257892
1413393240505760512,-1.1204,3.14595,1.68659,0.0397311,0.816152,-0.0733389,0.571785,0.549442,-0.0234398,-0.216516,-0.000389929,0.0189394,0.0613969,0.0303975,0.119294,0.260418
1413393240555760384,-1.0933,3.14454,1.6767,0.0353192,0.815344,-0.0766417,0.572794,0.536148,-0.0330934,-0.178459,-0.000413291,0.0189545,0.0614127,0.0313673,0.119592,0.263353
1413393240605760512,-1.06666,3.14236,1.66953,0.0317987,0.81483,-0.0793892,0.573357,0.513762,-0.042792,-0.129841,-0.000413543,0.0189688,0.0614415,0.0324642,0.1203,0.266774
1413393240655760384,-1.04037,3.1397,1.66489,0.03092,0.814906,-0.0807069,0.573114,0.533774,-0.0589678,-0.0745137,-0.000423687,0.0189689,0.0614553,0.0330072,0.120344,0.268869
1413393240705760512,-1.01328,3.1363,1.66455,0.031936,0.815076,-0.0813449,0.572726,0.550452,-0.0784112,0.0559272,-0.000459127,0.0189621,0.0614899,0.031549,0.120875,0.267763
1413393240755760384,-0.985958,3.13231,1.66933,0.0360733,0.814394,-0.0799903,0.57364,0.537083,-0.0794075,0.102861,-0.00044222,0.0189646,0.0615145,0.0278647,0.121633,0.266448
1413393240805760512,-0.959143,3.1283,1.67497,0.0405949,0.813016,-0.0784946,0.575496,0.536506,-0.0869455,0.12308,-0.000445338,0.018971,0.0615261,0.0235156,0.12006,0.265291
1413393240855760384,-0.932427,3.12399,1.67981,0.0462593,0.811651,-0.0759261,0.577338,0.532099,-0.0841352,0.0960271,-0.000455923,0.018977,0.0615491,0.0197939,0.121141,0.265796
1413393240905760512,-0.905862,3.11946,1.68306,0.049748,0.808998,-0.0752644,0.580847,0.518288,-0.0980588,0.0453713,-0.000449216,0.0189807,0.0615725,0.0151331,0.121459,0.263715
1413393240955760384,-0.880606,3.11482,1.68341,0.0531339,0.806339,-0.0748569,0.584287,0.486026,-0.0933029,-0.0161873,-0.000456221,0.0189942,0.0615905,0.0125468,0.122419,0.265611
1413393241005760512,-0.85628,3.11043,1.68101,0.0555841,0.803833,-0.0744988,0.587549,0.479383,-0.0867242,-0.0650909,-0.000454897,0.0190095,0.0616228,0.0111229,0.124005,0.268018
1413393241055760384,-0.832378,3.10617,1.67635,0.056017,0.801534,-0.0758126,0.590472,0.462574,-0.0867727,-0.115141,-0.000458232,0.0190267,0.0616519,0.010592,0.123833,0.270131
1413393241105760512,-0.809664,3.10238,1.6685,0.0532921,0.800567,-0.0792849,0.59158,0.439469,-0.0704407,-0.180859,-0.000468618,0.019041,0.0616683,0.0102123,0.125089,0.271674
1413393241155760384,-0.788487,3.09892,1.65828,0.0487075,0.800201,-0.0841987,0.591791,0.407859,-0.0665144,-0.233047,-0.000464665,0.0190473,0.0617042,0.0102219,0.127636,0.271829
1413393241205760512,-0.768422,3.09571,1.64597,0.0439093,0.800601,-0.0889884,0.590924,0.391763,-0.0653375,-0.253998,-0.000476097,0.0190679,0.0617204,0.0108746,0.128692,0.271393
1413393241255760384,-0.749502,3.09232,1.63341,0.039738,0.80151,-0.0935746,0.589277,0.365242,-0.0735053,-0.257702,-0.000471887,0.0190717,0.0617561,0.0113664,0.129268,0.270642
1413393241305760512,-0.731714,3.08847,1.621,0.0365564,0.8035,-0.0975017,0.586127,0.347011,-0.0895816,-0.240606,-0.000474951,0.0190649,0.0617693,0.0128851,0.129043,0.27017
1413393241355760384,-0.714815,3.08366,1.60843,0.0362818,0.808649,-0.0993021,0.578714,0.33,-0.101426,-0.236929,-0.000470694,0.0190912,0.0618059,0.0134578,0.131187,0.270947
1413393241405760512,-0.698287,3.07814,1.59699,0.0358556,0.812113,-0.101011,0.573571,0.322575,-0.126246,-0.226387,-0.000477133,0.0190957,0.0618177,0.0139222,0.132396,0.270223
1413393241455760384,-0.682158,3.07132,1.58657,0.0384573,0.814742,-0.100668,0.569721,0.317684,-0.150318,-0.19277,-0.000475161,0.01909,0.0618609,0.0140422,0.134364,0.269715
1413393241505760512,-0.666216,3.0638,1.57753,0.0428496,0.816101,-0.0982887,0.567876,0.316139,-0.154303,-0.159051,-0.000480443,0.0190997,0.0618877,0.0143932,0.136072,0.26853
1413393241555760384,-0.650277,3.05557,1.56946,0.0479419,0.815824,-0.0954144,0.568357,0.318655,-0.176902,-0.155601,-0.000482993,0.0191104,0.061925,0.0146381,0.137418,0.2676
1413393241605760512,-0.634214,3.04682,1.56206,0.053817,0.81444,-0.0917433,0.570417,0.323108,-0.173923,-0.155514,-0.000484852,0.0191324,0.0619478,0.0148929,0.13861,0.266258
1413393241655760384,-0.618074,3.03841,1.55461,0.0580599,0.813496,-0.0885458,0.57185,0.324083,-0.158199,-0.145438,-0.000495618,0.0191046,0.0619719,0.0151378,0.139898,0.265991
1413393241705760512,-0.601785,3.03048,1.54727,0.0625892,0.812338,-0.0851988,0.573525,0.325848,-0.155957,-0.150454,-0.000496874,0.0191329,0.0619984,0.0148915,0.140986,0.265444
1413393241755760384,-0.585379,3.023,1.53972,0.0647172,0.812229,-0.0838359,0.573644,0.327179,-0.14618,-0.142658,-0.000511801,0.0191343,0.0620207,0.0149271,0.141145,0.26506
1413393241805760512,-0.568989,3.01622,1.53236,0.0666785,0.813129,-0.0817179,0.572448,0.324023,-0.124374,-0.145583,-0.000506068,0.0191492,0.0620533,0.0141541,0.142576,0.265344
1413393241855760384,-0.552703,3.01017,1.52542,0.0675363,0.813834,-0.0802605,0.571552,0.32521,-0.11675,-0.136868,-0.000521747,0.0191427,0.0620851,0.0136229,0.14371,0.265646
1413393241905760512,-0.536401,3.00502,1.51967,0.0681289,0.812964,-0.0793623,0.572844,0.323144,-0.0948417,-0.0940665,-0.000535546,0.0191476,0.0621076,0.0132533,0.143451,0.265234
1413393241955760384,-0.520392,3.0011,1.51496,0.0686245,0.81097,-0.0771306,0.575907,0.317789,-0.0642249,-0.0920246,-0.000534398,0.0191547,0.0621277,0.0123085,0.144332,0.265208
1413393242005760512,-0.504629,2.99812,1.50998,0.0681024,0.809423,-0.0760835,0.57828,0.314619,-0.0554097,-0.0907796,-0.000556417,0.0191591,0.0621462,0.012277,0.146845,0.265115
1413393242055760384,-0.48913,2.99626,1.5061,0.0681054,0.806809,-0.0742914,0.582153,0.307595,-0.02038,-0.0671148,-0.000549352,0.0191559,0.062178,0.0113581,0.147569,0.263659
1413393242105760512,-0.474187,2.99561,1.50275,0.0678746,0.80448,-0.0724191,0.585629,0.292989,-0.00147355,-0.0575645,-0.000553256,0.0191618,0.0622086,0.0105716,0.147864,0.262263
1413393242155760384,-0.460109,2.99604,1.5002,0.0656665,0.800996,-0.0726161,0.59061,0.273174,0.0107763,-0.0481955,-0.000562294,0.0191806,0.062227,0.00938497,0.147463,0.261366
1413393242205760512,-0.447112,2.99746,1.49826,0.0625029,0.797154,-0.0730701,0.596071,0.246631,0.0459818,-0.0348064,-0.000562089,0.019183,0.0622616,0.00915282,0.148194,0.261126
1413393242255760384,-0.435572,2.99958,1.49665,0.060691,0.794681,-0.0729697,0.599562,0.21553,0.0488119,-0.028183,-0.000563279,0.0191821,0.0622856,0.00878731,0.149578,0.260582
1413393242305760512,-0.42556,3.00249,1.49558,0.0585867,0.793515,-0.0739435,0.601194,0.179686,0.0589038,-0.0236532,-0.000567391,0.0191902,0.0622965,0.00701564,0.148805,0.259226
1413393242355760384,-0.417343,3.0062,1.49431,0.0545198,0.794525,-0.0759209,0.599995,0.153248,0.0816102,-0.0361403,-0.000581359,0.0192014,0.0623201,0.00460992,0.14805,0.258383
1413393242405760512,-0.410706,3.01021,1.49298,0.048557,0.797492,-0.0794231,0.596104,0.118429,0.0864211,-0.0300941,-0.000571025,0.0192094,0.0623551,0.00272404,0.149861,0.258584
1413393242455760384,-0.405408,3.01457,1.49152,0.0416511,0.802177,-0.0838911,0.589695,0.0949172,0.0898279,-0.0258309,-0.000566859,0.0192176,0.0623693,0.00154656,0.151294,0.259055
1413393242505760512,-0.401286,3.01872,1.4901,0.0340064,0.807777,-0.0890094,0.581737,0.0722878,0.0842574,-0.0323962,-0.000564814,0.0192246,0.0624077,0.0023259,0.153417,0.260335
1413393242555760384,-0.397961,3.02218,1.48927,0.0282204,0.812763,-0.0926838,0.574482,0.0650604,0.0591303,0.00109251,-0.00055694,0.0192417,0.0624307,0.00239087,0.154733,0.261383
1413393242605760512,-0.394861,3.02444,1.48943,0.0239704,0.816665,-0.0956041,0.568633,0.0600776,0.0279016,0.012163,-0.000563776,0.01924,0.0624484,0.00314645,0.155191,0.262139
1413393242655760384,-0.391601,3.02514,1.49048,0.0218881,0.819243,-0.096698,0.56481,0.0712742,0.00339543,0.0335344,-0.000566265,0.0192552,0.0624739,0.00420215,0.156151,0.262729
1413393242705760512,-0.387861,3.02405,1.49233,0.0198315,0.819988,-0.0983807,0.563514,0.0816287,-0.0404658,0.0328686,-0.000566418,0.0192743,0.0624819,0.00448376,0.156102,0.262938
1413393242755760384,-0.38355,3.02124,1.49448,0.0161005,0.819597,-0.099915,0.563931,0.0903806,-0.065348,0.0587416,-0.000571116,0.019287,0.0625185,0.00495823,0.156561,0.264117
1413393242805760512,-0.378785,3.0166,1.49719,0.0148587,0.819017,-0.0984056,0.565073,0.0986629,-0.105075,0.0594361,-0.000568219,0.0192856,0.0625415,0.00547264,0.158198,0.264771
1413393242855760384,-0.373616,3.01058,1.50058,0.015387,0.818753,-0.0938265,0.566219,0.103514,-0.133081,0.0785539,-0.000568672,0.0192886,0.0625705,0.00558636,0.159036,0.265713
1413393242905760512,-0.368078,3.00327,1.5047,0.0208082,0.819077,-0.0834332,0.567203,0.111674,-0.146593,0.0701643,-0.000567312,0.019288,0.0625906,0.00535978,0.158892,0.26673
1413393242955760384,-0.362443,2.99509,1.50871,0.0244631,0.820821,-0.0735216,0.565906,0.110507,-0.175738,0.0916402,-0.000559453,0.0192951,0.0626073,0.00516923,0.160378,0.267244
1413393243005760512,-0.356607,2.98647,1.51344,0.0263062,0.823101,-0.0630444,0.563771,0.123349,-0.169635,0.0971912,-0.000562698,0.0193069,0.0626363,0.00537105,0.160985,0.267311
1413393243055760384,-0.350083,2.97769,1.51858,0.0259528,0.825116,-0.0515575,0.562007,0.133646,-0.17156,0.0883028,-0.000562304,0.0193075,0.0626651,0.00586909,0.161695,0.267455
1413393243105760512,-0.342974,2.96892,1.52358,0.0235274,0.827175,-0.0408332,0.559964,0.148517,-0.175544,0.10328,-0.000559412,0.0193088,0.0626909,0.00606669,0.162201,0.267475
1413393243155760384,-0.335051,2.96076,1.52939,0.018302,0.827713,-0.0298221,0.560059,0.170254,-0.147433,0.123105,-0.000568054,0.01934,0.062709,0.00593515,0.162904,0.265883
1413393243205760512,-0.326209,2.95327,1.53618,0.0121825,0.825791,-0.0186902,0.563535,0.189006,-0.141293,0.147487,-0.000574523,0.0193386,0.0627322,0.0065322,0.164556,0.265882
1413393243255760384,-0.316641,2.94591,1.5438,0.00672467,0.821599,-0.00955185,0.569946,0.196713,-0.15439,0.145349,-0.00056658,0.0193337,0.0627669,0.00676898,0.167038,0.266649
1413393243305760512,-0.306721,2.93889,1.55003,0.00205825,0.817081,-0.000664585,0.576518,0.199712,-0.124759,0.0948055,-0.000575005,0.0193414,0.0627863,0.0070363,0.169099,0.266715
1413393243355760384,-0.296771,2.9322,1.55313,-0.00349115,0.813567,0.00579911,0.581432,0.19578,-0.136131,0.0439795,-0.000578915,0.0193367,0.0628099,0.00732968,0.171687,0.266392
1413393243405760512,-0.287446,2.92559,1.55443,-0.00725024,0.810137,0.0111116,0.586091,0.176902,-0.130658,-0.00281504,-0.000574374,0.0193445,0.0628326,0.00694973,0.172976,0.265868
1413393243455760384,-0.279153,2.91946,1.55338,-0.0111053,0.808051,0.0160268,0.588789,0.159374,-0.113532,-0.0400484,-0.000573635,0.0193439,0.0628637,0.00647014,0.174089,0.265363
1413393243505760512,-0.271675,2.9134,1.54986,-0.0144593,0.806284,0.019783,0.591021,0.13911,-0.114517,-0.104615,-0.000582345,0.0193615,0.0628779,0.00586217,0.174499,0.266019
1413393243555760384,-0.265138,2.90763,1.54319,-0.0175911,0.80543,0.0227991,0.591991,0.117267,-0.112005,-0.147067,-0.000591277,0.0193709,0.0628924,0.00501137,0.175721,0.266111
1413393243605760512,-0.25971,2.90192,1.53529,-0.0196123,0.805282,0.0254307,0.592021,0.101509,-0.108414,-0.154539,-0.000583809,0.0193745,0.0629293,0.00439468,0.17608,0.265517
1413393243655760384,-0.255262,2.89654,1.52717,-0.0209803,0.805669,0.0277568,0.591343,0.0787696,-0.101077,-0.16262,-0.00059169,0.0193832,0.0629461,0.00375582,0.17733,0.266156
1413393243705760512,-0.252047,2.89158,1.5195,-0.0214126,0.806948,0.030172,0.589462,0.0588048,-0.0868672,-0.128208,-0.000595304,0.0193818,0.0629867,0.00301317,0.178833,0.265908
1413393243755760384,-0.249929,2.88708,1.51314,-0.0220665,0.808528,0.031538,0.587198,0.0311832,-0.0824921,-0.112333,-0.000582595,0.0193759,0.063023,0.0031742,0.178995,0.265855
1413393243805760512,-0.248914,2.88316,1.50835,-0.0215648,0.81009,0.0330931,0.584974,0.00840713,-0.0733924,-0.0789091,-0.000592255,0.0193876,0.0630555,0.00293397,0.17917,0.266138
1413393243855760384,-0.248872,2.87977,1.50478,-0.0231228,0.810714,0.0332303,0.584041,-0.00533427,-0.0597206,-0.0673032,-0.000595318,0.019391,0.0630911,0.00256857,0.179863,0.266074
1413393243905760512,-0.24972,2.87669,1.50232,-0.0225679,0.811102,0.0341979,0.583468,-0.0190463,-0.0580651,-0.0330605,-0.000583862,0.0193988,0.0631142,0.0026113,0.179282,0.265366
1413393243955760384,-0.251087,2.87403,1.50065,-0.022622,0.81112,0.0347453,0.583408,-0.0330335,-0.0483303,-0.0235601,-0.000582109,0.0194071,0.063137,0.00219807,0.179967,0.266177
1413393244005760512,-0.253155,2.87179,1.49958,-0.0225368,0.811453,0.0351981,0.582922,-0.041555,-0.0377041,-0.0190658,-0.000583664,0.0194209,0.0631508,0.00248298,0.179794,0.266096
1413393244055760384,-0.255615,2.87008,1.49947,-0.0211333,0.811208,0.0359702,0.583268,-0.0514016,-0.0271409,0.000522729,-0.000571114,0.0194504,0.0631705,0.0027179,0.180075,0.266759
1413393244105760512,-0.258741,2.86885,1.49975,-0.0201865,0.811483,0.0366226,0.582878,-0.0659151,-0.012687,0.0224913,-0.000580375,0.0194587,0.0631998,0.00287446,0.178585,0.268083
1413393244155760384,-0.262475,2.86863,1.50045,-0.0197666,0.811705,0.0380278,0.582493,-0.0845778,0.00314479,0.0042665,-0.000584172,0.0194651,0.0632137,0.00216138,0.179306,0.267872
1413393244205760512,-0.266926,2.86952,1.50101,-0.0219243,0.811544,0.0402733,0.58249,-0.0937621,0.0300762,0.00865689,-0.000579016,0.0194802,0.0632343,0.00137305,0.180091,0.267044
1413393244255760384,-0.271977,2.87137,1.5021,-0.0241465,0.811867,0.0448996,0.581612,-0.106845,0.0423097,0.0133714,-0.000583886,0.0194871,0.0632564,1.63335e-05,0.178548,0.264714
1413393244305760512,-0.277616,2.87382,1.50277,-0.02729,0.812215,0.0506404,0.580515,-0.116158,0.0592885,0.0243932,-0.000577791,0.0194873,0.063275,-0.00110535,0.178999,0.264386
1413393244355760384,-0.283623,2.87707,1.50328,-0.0320817,0.812414,0.0573109,0.57937,-0.121277,0.0868965,0.00961727,-0.000581104,0.019496,0.0632974,-0.00188345,0.179632,0.264054
1413393244405760512,-0.289821,2.88119,1.50291,-0.0371395,0.811266,0.0626852,0.580119,-0.124537,0.0819177,-0.0278457,-0.00059098,0.0194843,0.0633178,-0.00317802,0.181376,0.263319
1413393244455760384,-0.296618,2.88568,1.50094,-0.0427905,0.809625,0.0666056,0.581584,-0.141563,0.0979282,-0.0682804,-0.000591002,0.0194975,0.0633464,-0.00508936,0.183396,0.263807
1413393244505760512,-0.304096,2.89082,1.49601,-0.0485442,0.808716,0.0699815,0.582,-0.155512,0.108014,-0.128175,-0.000592593,0.0195057,0.0633652,-0.00608235,0.183879,0.262732
1413393244555760384,-0.312358,2.89582,1.48769,-0.0537774,0.807563,0.072201,0.58287,-0.170333,0.0926711,-0.191727,-0.000592726,0.0195082,0.0633942,-0.00725641,0.18438,0.262202
1413393244605760512,-0.320955,2.90069,1.4772,-0.0583222,0.80768,0.0744038,0.581993,-0.173746,0.101479,-0.221496,-0.000596459,0.0195282,0.0634169,-0.00852327,0.186221,0.263151
1413393244655760384,-0.329818,2.90569,1.46693,-0.0626084,0.807853,0.0761683,0.581079,-0.168474,0.100578,-0.187308,-0.000596991,0.0195148,0.0634447,-0.00937162,0.188773,0.263711
1413393244705760512,-0.338828,2.91057,1.46041,-0.0657276,0.807113,0.0780314,0.581516,-0.204971,0.0897043,-0.10966,-0.000599053,0.0195334,0.0634589,-0.00924557,0.190931,0.264935
1413393244755760384,-0.349807,2.91485,1.45479,-0.0706971,0.807829,0.0773372,0.580029,-0.222575,0.0829294,-0.08812,-0.000601336,0.0195372,0.0634729,-0.00721872,0.191851,0.265888
1413393244805760512,-0.361184,2.91882,1.4525,-0.0759157,0.807763,0.0759132,0.57965,-0.226866,0.0804011,-0.0135802,-0.00060304,0.0195476,0.0634976,-0.00404031,0.192774,0.267632
1413393244855760384,-0.373035,2.92263,1.45386,-0.0795693,0.808519,0.0749956,0.578223,-0.246792,0.0739956,0.0760057,-0.000590443,0.0195592,0.0635142,-0.000449173,0.194138,0.268945
1413393244905760512,-0.384518,2.92607,1.46003,-0.082086,0.808524,0.073768,0.578022,-0.22221,0.0538791,0.160698,-0.000586013,0.0195791,0.0635462,0.00228113,0.193227,0.270661
1413393244955760384,-0.395716,2.92842,1.46984,-0.0823729,0.80839,0.0739078,0.578151,-0.243256,0.0336003,0.225551,-0.000591548,0.0195853,0.0635766,0.00597448,0.193832,0.27217
1413393245005760512,-0.408098,2.92869,1.47907,-0.0795646,0.810111,0.0755819,0.575914,-0.253598,0.00811678,0.209613,-0.00053819,0.019445,0.063665,0.0197853,0.193822,0.278363
1413393245055760384,-0.421035,2.92865,1.48868,-0.0772592,0.812493,0.0762978,0.57277,-0.264479,-0.00748964,0.174954,-0.000558005,0.0195141,0.0636228,0.0155535,0.187482,0.281625
1413393245105760512,-0.434267,2.92797,1.49633,-0.0745184,0.815196,0.0778517,0.56907,-0.263607,-0.0138405,0.118991,-0.000564206,0.0195402,0.0636461,0.0159584,0.186601,0.281431
1413393245155760384,-0.447024,2.9268,1.50112,-0.0729049,0.818247,0.0779957,0.564866,-0.253585,-0.0255444,0.0675671,-0.000563444,0.0195619,0.0636394,0.0172405,0.186718,0.280978
1413393245205760512,-0.459569,2.92529,1.50334,-0.0709584,0.821293,0.0784944,0.560608,-0.248089,-0.0292345,0.0211029,-0.000566225,0.0195556,0.0636819,0.0192218,0.184895,0.281365
1413393245255760384,-0.471924,2.92368,1.50304,-0.0687053,0.822559,0.0796048,0.558873,-0.242482,-0.034386,-0.0353754,-0.000575144,0.0195505,0.0637061,0.0202677,0.184883,0.281639
1413393245305760512,-0.483602,2.92211,1.4998,-0.0665673,0.823328,0.0805533,0.557863,-0.227158,-0.0276198,-0.0919825,-0.00057832,0.0195748,0.0637232,0.0204826,0.184458,0.281193
1413393245355760384,-0.49464,2.92074,1.49416,-0.0640418,0.822857,0.0820817,0.558631,-0.216103,-0.0168732,-0.132234,-0.000573862,0.0195798,0.0637371,0.0215807,0.183603,0.280364
1413393245405760512,-0.50508,2.91991,1.48677,-0.0620291,0.822015,0.0829825,0.559962,-0.193584,-0.0206435,-0.164903,-0.000572492,0.0195726,0.0637563,0.0227157,0.181891,0.279442
1413393245455760384,-0.514737,2.91906,1.47771,-0.0594923,0.820668,0.0843388,0.562007,-0.192425,-0.0163501,-0.205258,-0.000585142,0.0195924,0.063785,0.0245719,0.179336,0.279914
1413393245505760512,-0.524369,2.91829,1.46647,-0.0574514,0.8193,0.0855489,0.564028,-0.183999,-0.00844563,-0.23021,-0.000557342,0.0196057,0.0638431,0.0275078,0.180307,0.280666
1413393245555760384,-0.532856,2.91762,1.4547,-0.0551554,0.817616,0.086494,0.566552,-0.173619,-0.00982775,-0.225896,-0.000612366,0.0196632,0.0637545,0.0285427,0.172723,0.286342
1413393245605760512,-0.521877,2.8948,1.45168,-0.0593332,0.829121,0.0794209,0.55021,-0.181122,0.00918175,-0.214691,-0.000736354,0.0199408,0.0628965,0.188757,0.402028,0.688434
1413393245655760384,-0.5303,2.89486,1.44093,-0.0576991,0.827992,0.0796667,0.552045,-0.189737,0.024614,-0.208138,-0.000738499,0.0199387,0.062901,0.194188,0.412274,0.698914
1413393245705760512,-0.539702,2.89605,1.431,-0.0550227,0.827194,0.080172,0.553439,-0.19003,0.0340016,-0.187468,-0.000749684,0.0199454,0.0629319,0.193667,0.416541,0.70036
1413393245755760384,-0.549395,2.89805,1.42184,-0.0530175,0.827674,0.0795622,0.553005,-0.193698,0.0489146,-0.175686,-0.0007416,0.0199457,0.0629385,0.193186,0.418034,0.699625
1413393245805760512,-0.559018,2.90098,1.41345,-0.0518426,0.828357,0.078031,0.552312,-0.193924,0.0683734,-0.157465,-0.000745515,0.0199516,0.062957,0.193422,0.419172,0.699199
1413393245855760384,-0.568606,2.90475,1.40626,-0.0526101,0.828762,0.0750265,0.552048,-0.194296,0.0793512,-0.131609,-0.000757842,0.019969,0.0629761,0.194316,0.419071,0.698167
1413393245905760512,-0.578392,2.909,1.39972,-0.0542834,0.830164,0.0713045,0.550269,-0.196873,0.0840624,-0.131619,-0.000754658,0.0199615,0.0629913,0.194901,0.419754,0.69694
1413393245955760384,-0.588303,2.91357,1.39388,-0.0579312,0.831593,0.0664794,0.548341,-0.196646,0.0946466,-0.122389,-0.000757694,0.0199497,0.0630169,0.194406,0.420997,0.695952
1413393246005760512,-0.597948,2.91835,1.38796,-0.0631368,0.833908,0.0605929,0.544922,-0.191177,0.0964093,-0.11905,-0.000781747,0.0199465,0.0630363,0.193152,0.420692,0.694719
1413393246055760384,-0.607076,2.92271,1.38216,-0.0687765,0.836133,0.0544949,0.541463,-0.176383,0.082773,-0.115657,-0.000776106,0.0199544,0.0630474,0.192822,0.422151,0.693936
1413393246105760512,-0.615622,2.9266,1.37631,-0.0731628,0.838662,0.0490077,0.537486,-0.162292,0.0695098,-0.118708,-0.000786003,0.0199593,0.0630896,0.192015,0.423841,0.693775
