#timestamp, p_RS_R_x [m], p_RS_R_y [m], p_RS_R_z [m], q_RS_w [], q_RS_x [], q_RS_y [], q_RS_z [], v_RS_R_x [m s^-1], v_RS_R_y [m s^-1], v_RS_R_z [m s^-1], b_w_RS_S_x [rad s^-1], b_w_RS_S_y [rad s^-1], b_w_RS_S_z [rad s^-1], b_a_RS_S_x [m s^-2], b_a_RS_S_y [m s^-2], b_a_RS_S_z [m s^-2]
1413393212255760384,-1.07611,0.492467,1.32992,0.602566,-0.00175102,-0.79806,0.00339205,-0.00116153,0.00698203,0.00177143,-0.000171369,0.00209704,0.00723286,-0.000670527,2.02652e-05,0.000180267
1413393212305760512,-1.31681,0.576324,1.49569,0.602695,-0.00322221,-0.797962,0.0022692,-0.000833505,0.00275628,0.000891196,-0.00018426,0.00219278,0.00757255,-0.00100949,2.72274e-05,0.000272768
1413393212355760384,-1.3971,0.715712,1.14813,0.602726,-0.017574,-0.79771,-0.00841631,-0.00446136,-0.00113585,0.00122247,-0.000208731,0.00228907,0.00791078,-0.00138496,1.8757e-05,0.00034571
1413393212405760512,-1.361,0.658111,1.26374,0.602952,-0.0122439,-0.797673,-0.00422949,-0.00381708,0.00101145,-0.000717187,-0.000210691,0.00240236,0.00823149,-0.00238729,6.68848e-05,0.000562073
1413393212455760384,-1.38138,0.676724,0.368636,0.602978,-0.0137912,-0.797623,-0.00503925,-0.00388312,-0.0057994,-2.65075e-05,-0.000219106,0.00249151,0.00858348,-0.00278177,0.000121903,0.000591864
1413393212505760512,-1.3486,0.648686,1.13482,0.602768,-0.0232113,-0.79748,-0.0125628,-0.00240559,-0.00320685,0.00234643,-0.00021843,0.00257046,0.00892307,-0.00271588,5.37623e-05,0.000524952
1413393212555760384,-1.35129,0.651308,1.10537,0.602939,-0.0240218,-0.79732,-0.0130033,-0.00175021,-0.00480386,-0.0015946,-0.000226266,0.00270571,0.0093199,-0.0048078,0.000139949,0.00129964
1413393212605760512,-1.36608,0.668273,0.961473,0.603037,-0.0126835,-0.797601,-0.00424985,-0.001566,0.00199543,-0.000692756,-0.000259442,0.00280658,0.00961352,-0.00582483,3.77242e-05,0.00137958
1413393212655760384,-1.36405,0.659761,0.924577,0.602708,-0.0211078,-0.797608,-0.0109315,-0.00142557,-5.90348e-05,-0.000314893,-0.000254663,0.00289379,0.00992552,-0.00551919,0.00024213,0.00116545
1413393212705760512,-1.37269,0.66993,0.923377,0.602894,-0.0156064,-0.797644,-0.00628339,0.00152318,-0.00280406,0.000199322,-0.000271525,0.00298874,0.0102684,-0.00619996,0.000184313,0.00130276
1413393212755760384,-1.37828,0.68104,0.816341,0.602909,-0.0152004,-0.797638,-0.00659793,0.00125393,0.00155687,0.00123435,-0.00029009,0.00308763,0.01056,-0.00658615,-5.67718e-05,0.000615771
1413393212805760512,-1.3486,0.641367,0.985006,0.602532,-0.0335352,-0.797126,-0.0205375,0.000558547,-0.00139472,0.000940523,-0.000266137,0.00316507,0.0109012,-0.00636467,-0.000939917,0.000912472
1413393212855760384,-1.35545,0.64813,1.02283,0.602759,-0.0285482,-0.79723,-0.0170809,0.00076304,0.00222492,0.000839515,-0.000272686,0.00324437,0.011196,-0.00687235,-0.00188819,-0.00032743
1413393212905760512,-1.35583,0.648532,0.973982,0.602722,-0.0281236,-0.797278,-0.0168404,-0.00123774,0.00206245,-0.000248537,-0.000275255,0.00333183,0.0115017,-0.0069321,-0.00186318,-0.000670724
1413393212955760384,-1.35675,0.649493,1.04524,0.602677,-0.028027,-0.797319,-0.0166859,-0.00242306,-0.00125585,-0.00173985,-0.000275869,0.00341044,0.0118202,-0.00752498,-0.0018249,-0.00112161
1413393213005760512,-1.35712,0.650691,1.01565,0.60275,-0.0280695,-0.797261,-0.0167565,-0.00103336,0.00170495,-0.000906951,-0.000277324,0.00349992,0.012119,-0.00813794,-0.00190116,-0.000974926
1413393213055760384,-1.35841,0.652819,0.966056,0.602833,-0.0289844,-0.797152,-0.0173564,-0.00163586,0.000161202,-0.00149343,-0.00024816,0.00356582,0.0124024,-0.00803316,-0.00190537,-0.000727854
1413393213105760512,-1.37719,0.67543,0.969509,0.602894,-0.019577,-0.797523,-0.00969129,-0.00219574,-0.00105443,-0.00473791,-0.000315918,0.0036308,0.0127036,-0.00806349,0.000578749,0.000938382
1413393213155760384,-1.37749,0.675813,0.974183,0.602857,-0.0194744,-0.797552,-0.00974164,-0.00108317,0.000282929,-0.00123242,-0.000328654,0.00373524,0.0130306,-0.00925982,0.000736428,0.00109904
1413393213205760512,-1.37707,0.675707,0.969002,0.602896,-0.0195707,-0.79752,-0.00981078,0.000665114,0.00105175,-0.000125478,-0.000319604,0.00379511,0.0132982,-0.00951084,0.00090874,0.00121274
1413393213255760384,-1.37713,0.675802,0.958245,0.60289,-0.0196267,-0.797521,-0.00993734,0.0020783,-8.39519e-05,0.00270907,-0.000324427,0.0038917,0.0136154,-0.010764,0.000842482,0.00122083
1413393213305760512,-1.37682,0.675668,0.962213,0.60289,-0.0197628,-0.797516,-0.0100647,0.00124889,-0.00191351,0.00306209,-0.000339631,0.00397999,0.0139019,-0.0118832,0.000724433,0.00116146
1413393213355760384,-1.37662,0.675732,0.944953,0.602889,-0.0205277,-0.797497,-0.0101232,0.00261184,0.0019509,0.00113673,-0.000353961,0.00405465,0.0141782,-0.0121966,0.000393041,0.000972026
1413393213405760512,-1.38519,0.687035,1.01219,0.602894,-0.0152468,-0.797651,-0.00630994,0.00279205,0.00223582,0.00391628,-0.000373972,0.00414804,0.0144718,-0.0131637,0.00216466,0.00233772
1413393213455760384,-1.39547,0.700115,1.03388,0.602765,-0.00914101,-0.797866,-0.00121732,0.00132297,-0.000470682,0.00195699,-0.000385709,0.00422819,0.0147256,-0.0133241,0.0048274,0.00436674
1413393213505760512,-1.40109,0.707768,1.05284,0.602572,-0.0059142,-0.798042,0.00118748,-0.000900541,-0.000125446,0.00202095,-0.000397179,0.00432216,0.0150075,-0.0135046,0.00640117,0.00691971
1413393213555760384,-1.39071,0.694465,0.947382,0.602546,-0.00960643,-0.798025,-0.00166049,-0.000502352,0.00161145,0.00258112,-0.000401216,0.00439596,0.0152829,-0.0138172,0.00636165,0.00658048
1413393213605760512,-1.38939,0.692989,0.956724,0.60255,-0.0101511,-0.798014,-0.00201219,0.000429486,0.00254571,0.00159191,-0.000402696,0.00448137,0.0155723,-0.014198,0.00669429,0.006137
1413393213655760384,-1.3886,0.692286,0.942167,0.60252,-0.0100736,-0.798038,-0.00212439,0.000244695,0.000222555,-0.000172679,-0.000410497,0.00456313,0.0158549,-0.0149661,0.00661088,0.00570661
1413393213705760512,-1.38784,0.691533,0.940609,0.602528,-0.0102322,-0.79803,-0.00206555,0.000248695,-0.00225659,-0.000705395,-0.000413579,0.00464165,0.0161247,-0.015309,0.00668572,0.00558283
1413393213755760384,-1.38789,0.691622,0.940854,0.602513,-0.0103116,-0.79804,-0.00214272,0.000719388,-0.00106621,-0.00238351,-0.000414565,0.00472699,0.0164027,-0.0161782,0.00679007,0.00558992
1413393213805760512,-1.38764,0.691477,0.933763,0.602575,-0.0103242,-0.797993,-0.00215385,-0.000256885,-0.000823969,-0.00510636,-0.00041204,0.0047988,0.0166622,-0.0158947,0.00698612,0.00586122
1413393213855760384,-1.38761,0.691209,0.936234,0.602597,-0.0104394,-0.797975,-0.00219119,-0.00114213,-0.00195115,-0.00309657,-0.000425822,0.00486839,0.0169361,-0.0158763,0.0069142,0.00558561
1413393213905760512,-1.38663,0.690228,0.918506,0.602596,-0.010646,-0.797972,-0.0023837,-0.000124437,-0.00398085,-0.00338329,-0.000439193,0.00495582,0.0172055,-0.0170967,0.0069713,0.0068957
1413393213955760384,-1.38615,0.689529,0.917572,0.602547,-0.0107002,-0.798008,-0.00242962,0.00103253,-0.00417425,-0.000665011,-0.000440226,0.00502582,0.0174615,-0.0170203,0.00720737,0.00665794
1413393214005760512,-1.38604,0.689244,0.919726,0.602476,-0.0108354,-0.79806,-0.00241247,0.00130719,0.0098345,0.00271678,-0.000447759,0.00510557,0.0177158,-0.0172599,0.00703343,0.00675615
1413393214055760384,-1.38577,0.689191,0.919432,0.602629,-0.0109813,-0.797942,-0.00264099,0.00295122,0.00664073,0.000476066,-0.000466989,0.00517729,0.0179704,-0.0172733,0.00676234,0.00658225
1413393214105760512,-1.38625,0.689892,0.919238,0.602358,-0.0106589,-0.798151,-0.00238105,0.000615912,0.00222907,0.00163044,-0.000482974,0.0052501,0.0182372,-0.0171794,0.00682778,0.00632662
1413393214155760384,-1.38688,0.69069,0.921885,0.602594,-0.0105655,-0.797975,-0.00224809,0.0027069,-0.000298897,0.000530305,-0.000498997,0.00532641,0.0185123,-0.0182559,0.00647036,0.0073412
1413393214205760512,-1.38688,0.690699,0.918556,0.602492,-0.0105833,-0.798052,-0.00213616,0.00028667,0.00190065,0.000285065,-0.000498949,0.00539096,0.0187285,-0.0181214,0.00680098,0.00685383
1413393214255760384,-1.38791,0.692113,0.917768,0.602605,-0.0101355,-0.797973,-0.0021103,-9.93569e-05,0.000584529,0.000331123,-0.000504207,0.00546822,0.0189803,-0.0186005,0.0066994,0.00766449
1413393214305760512,-1.38818,0.692311,0.911877,0.602583,-0.0101079,-0.79799,-0.00186709,0.000314641,-0.00330615,-0.00106008,-0.000513233,0.00553669,0.0192026,-0.0184986,0.00713311,0.0076959
1413393214355760384,-1.38839,0.692434,0.916337,0.602623,-0.0100464,-0.797961,-0.00188755,-6.71073e-05,0.00132762,0.000773604,-0.000518824,0.00559713,0.0194402,-0.0178987,0.00736333,0.00778688
1413393214405760512,-1.38853,0.692667,0.914335,0.602582,-0.0100086,-0.797992,-0.00193553,0.00014982,-0.000631125,8.69991e-05,-0.00053643,0.00567605,0.0196985,-0.0181685,0.00704912,0.00764693
1413393214455760384,-1.38925,0.693497,0.914676,0.602634,-0.00979852,-0.797956,-0.00159368,-0.00065579,0.00066222,0.00112295,-0.00055445,0.00574003,0.019935,-0.01809,0.00659102,0.00837156
1413393214505760512,-1.38938,0.693759,0.916497,0.602551,-0.00953538,-0.798022,-0.00158301,-0.00118144,8.5157e-05,0.0027788,-0.00053963,0.0058056,0.0201821,-0.0181203,0.00782884,0.00696933
1413393214555760384,-1.38947,0.693974,0.921351,0.602523,-0.00938604,-0.798045,-0.00136272,-0.000809068,-0.0012429,0.00115641,-0.000541329,0.00587694,0.0204243,-0.0186222,0.00867205,0.00605506
1413393214605760512,-1.38994,0.694322,0.946578,0.602458,-0.00897875,-0.7981,-0.00123933,-0.00241831,0.000791775,0.000457207,-0.000533691,0.005946,0.0206628,-0.0183348,0.00914245,0.00595235
1413393214655760384,-1.38986,0.694361,0.948489,0.602459,-0.00880117,-0.798101,-0.0010325,6.10325e-05,-0.00179876,0.0014189,-0.000533066,0.00599164,0.0208784,-0.0171536,0.00966468,0.0064077
1413393214705760512,-1.38929,0.693896,0.95056,0.602534,-0.00894707,-0.798042,-0.00111525,-0.0013025,-0.000202841,-0.00136264,-0.000542177,0.00606713,0.0211021,-0.0166454,0.00922198,0.00766064
1413393214755760384,-1.38657,0.691011,0.951078,0.602533,-0.0100595,-0.798028,-0.0020755,0.000302111,-0.00116719,-0.000455279,-0.00053354,0.00610634,0.0213077,-0.0163918,0.0107709,0.00476096
1413393214805760512,-1.3861,0.690849,0.950463,0.602565,-0.010229,-0.798002,-0.00209976,0.00108346,5.70742e-05,-0.000508407,-0.000547352,0.00617211,0.0215542,-0.0185537,0.0101513,0.00592219
1413393214855760384,-1.38591,0.69055,0.940225,0.602546,-0.0100668,-0.798018,-0.00205181,0.00111326,0.00104396,-0.000969982,-0.000541948,0.00625964,0.0218318,-0.0211665,0.0100719,0.00687673
1413393214905760512,-1.39013,0.694925,0.937464,0.602486,-0.00803618,-0.798089,-0.000523312,0.00146066,-8.6139e-05,-0.000914493,-0.000536399,0.00632051,0.0220621,-0.0220481,0.0099009,0.00742198
1413393214955760384,-1.38995,0.69473,0.938244,0.602472,-0.0079897,-0.798101,-0.000402813,0.00106109,0.000954186,0.000290576,-0.000545728,0.00640457,0.0222817,-0.022717,0.0090926,0.00686454
1413393215005760512,-1.3889,0.693517,0.941481,0.602466,-0.0082259,-0.798102,-0.000627514,0.000863249,0.00169037,0.00108076,-0.000551434,0.00647835,0.0224819,-0.0239715,0.00981569,0.00557127
1413393215055760384,-1.38753,0.691581,0.940331,0.602332,-0.00889881,-0.798195,-0.00130434,-0.000693145,-0.00195623,0.00242232,-0.000549246,0.00655162,0.022712,-0.0243087,0.00884534,0.00612078
1413393215105760512,-1.38543,0.688585,0.902701,0.602173,-0.00926273,-0.798311,-0.00129749,-0.00127926,-0.00738058,-0.00327077,-0.000547585,0.00663158,0.0229812,-0.0249349,0.00862205,0.00877323
1413393215155760384,-1.40203,0.709865,0.899395,0.602174,-0.000357918,-0.798346,0.00552286,-0.00037596,-0.00171979,-0.00161893,-0.000572485,0.00669206,0.0231346,-0.0235147,0.010741,0.0108154
1413393215205760512,-1.40431,0.712649,0.941245,0.602063,0.000526148,-0.798426,0.00607616,-0.00137508,-0.00250449,-0.00363502,-0.0005934,0.00676754,0.0233796,-0.0254203,0.00955911,0.0136684
1413393215255760384,-1.4015,0.709626,0.900794,0.602067,0.00014485,-0.798423,0.00602954,-0.00163544,-0.00217013,-0.00460011,-0.000598184,0.00681069,0.0235532,-0.0241269,0.0109793,0.0141537
1413393215305760512,-1.38573,0.68805,0.946505,0.602301,-0.00978798,-0.798207,-0.00175813,-0.0031163,-0.00165114,-0.00387048,-0.000612164,0.00685105,0.0237425,-0.0248665,0.00917139,0.00770435
1413393215355760384,-1.40113,0.708226,0.940133,0.602121,-0.000738637,-0.798388,0.00520922,-0.00159375,-0.00298166,-0.00405964,-0.000637281,0.00693068,0.0239624,-0.0256106,0.0117588,0.0107794
1413393215405760512,-1.38988,0.693079,1.00386,0.602123,-0.00763857,-0.798367,-0.000162204,-0.00251575,-0.00101547,-0.00208694,-0.000591178,0.00697448,0.0241596,-0.025385,0.0143599,0.0056082
1413393215455760384,-1.40386,0.711175,0.944145,0.601779,0.00105618,-0.798636,0.00644505,-0.00486379,-0.000443951,0.000230705,-0.000614059,0.00702223,0.0243853,-0.0258304,0.0157995,0.0103797
1413393215505760512,-1.40643,0.711876,1.01839,0.601708,-0.000218491,-0.798697,0.00554953,-0.00340594,-0.00185905,-0.000991094,-0.000605649,0.00710752,0.0246154,-0.0287418,0.0153059,0.0106726
1413393215555760384,-1.40755,0.713075,0.981224,0.601515,0.0010953,-0.798836,0.00633246,-0.00694485,-0.00308108,0.00140772,-0.000581782,0.00713168,0.0248055,-0.0306849,0.0188562,0.0114543
1413393215605760512,-1.40747,0.712663,0.953581,0.601447,0.00107577,-0.798888,0.00626004,-0.00844691,-0.00475329,0.0043027,-0.000593961,0.0072132,0.0249928,-0.029412,0.0178251,0.0118454
1413393215655760384,-1.40792,0.712333,0.959805,0.601269,0.000870319,-0.79902,0.00649804,-0.00770672,-0.0017897,0.0042357,-0.000585779,0.00727382,0.0251897,-0.0300969,0.0180457,0.0132193
1413393215705760512,-1.40881,0.712423,0.975577,0.600653,0.00104727,-0.799481,0.0067148,-0.00400303,-0.00471045,-0.00253118,-0.000607476,0.00733923,0.0254259,-0.0302301,0.0169934,0.016165
1413393215755760384,-1.40912,0.712496,0.979829,0.600152,0.00116173,-0.799859,0.00655694,-0.00134289,-0.00165362,-0.00419851,-0.000606258,0.00738592,0.0255986,-0.0297746,0.0165833,0.0171714
1413393215805760512,-1.40943,0.712686,0.977998,0.599695,0.00145223,-0.800201,0.00657401,0.00240342,-0.00349916,0.0106712,-0.000622625,0.00746407,0.0258391,-0.0319295,0.0154421,0.0219396
1413393215855760384,-1.40928,0.712641,0.975958,0.599419,0.00162275,-0.800406,0.00664148,-0.000827262,-0.000111271,0.00846585,-0.00066316,0.00751961,0.0259968,-0.0335503,0.015093,0.0227625
1413393215905760512,-1.40931,0.712649,0.976606,0.599298,0.00156446,-0.800497,0.00672171,-0.00104418,-0.000663421,0.0087095,-0.000674969,0.0076124,0.0261644,-0.0339183,0.0132758,0.0230441
1413393215955760384,-1.40985,0.71294,0.98791,0.599201,0.00155799,-0.800564,0.00737765,0.00288166,0.00251138,0.00676813,-0.000698748,0.00760527,0.0263548,-0.0327273,0.0152136,0.0257667
1413393216005760512,-1.40955,0.712747,1.00952,0.599308,0.00179615,-0.800487,0.00691806,0.00857126,0.00262481,0.00777401,-0.000688163,0.00767176,0.0265778,-0.0339864,0.0168181,0.0279897
1413393216055760384,-1.4097,0.712883,1.02411,0.599332,0.00221274,-0.800471,0.00648824,0.000642922,0.00370725,0.00365121,-0.000714454,0.00775719,0.0267085,-0.0329283,0.0176577,0.0289677
1413393216105760512,-1.40961,0.713322,1.00246,0.599226,0.00218584,-0.800548,0.0068723,-0.000469708,0.00337748,-0.00692404,-0.000716007,0.00779486,0.0269321,-0.0334636,0.0187496,0.0309784
1413393216155760384,-1.41001,0.714371,0.969754,0.599554,0.00301818,-0.800298,0.00705721,-0.00206779,0.00124276,-0.00347829,-0.000747033,0.007855,0.0270825,-0.0340172,0.0154232,0.0375855
1413393216205760512,-1.41011,0.714084,0.975763,0.599228,0.00308288,-0.80054,0.00719736,-0.00455177,0.00384542,-0.00589171,-0.000749533,0.00794447,0.0273019,-0.0353102,0.0185199,0.0383021
1413393216255760384,-1.41205,0.715769,0.983595,0.598068,0.00395847,-0.801397,0.00786665,-0.0126787,0.0025031,-1.97979e-05,-0.000767207,0.00798153,0.0274541,-0.0338819,0.0151482,0.0439596
1413393216305760512,-1.41644,0.71849,1.05769,0.596756,0.00523407,-0.802357,0.00887936,-0.00910945,-0.00536109,-0.00117097,-0.000766691,0.00800197,0.0276174,-0.0322475,0.014989,0.0476137
1413393216355760384,-1.42195,0.72272,1.08621,0.596063,0.00635261,-0.802849,0.010163,-0.00132421,0.000326504,-0.00386797,-0.000840629,0.00808927,0.0278023,-0.0318963,0.0091982,0.0542055
1413393216405760512,-1.4248,0.723921,1.15814,0.595339,0.00726445,-0.803369,0.0108018,-0.00130589,-0.0121474,-0.00768286,-0.000818689,0.00811045,0.0280063,-0.0271736,0.0123872,0.0599724
1413393216455760384,-1.42969,0.726545,1.20295,0.595199,0.00871598,-0.803453,0.0112524,-0.00639167,-0.00662725,0.0105941,-0.000792246,0.00815398,0.0281945,-0.024727,0.0149123,0.0632523
1413393216505760512,-1.43493,0.728454,1.31081,0.59314,0.00921501,-0.804967,0.0113534,0.00128865,0.00483145,0.0120487,-0.00079909,0.00821327,0.0283423,-0.0227018,0.0177981,0.0674431
1413393216555760384,-1.44077,0.734148,1.34297,0.592173,0.0115399,-0.805633,0.0124441,-0.00035636,0.00917216,-0.0197859,-0.000801693,0.008297,0.0285332,-0.0227756,0.0124229,0.0725231
1413393216605760512,-1.44532,0.739793,1.33406,0.591502,0.0124932,-0.80608,0.0143068,-0.0010318,0.019167,-0.0124657,-0.000800187,0.00833359,0.028734,-0.0211103,0.0114671,0.0782682
1413393216655760384,-1.45475,0.746396,1.50537,0.591755,0.014698,-0.805848,0.0148258,0.000651416,0.00802326,0.0232435,-0.000824299,0.00836221,0.0289196,-0.0194867,0.0101947,0.0873955
1413393216705760512,-1.45811,0.751455,1.40847,0.592394,0.0173166,-0.805341,0.014021,0.0181203,0.0223586,0.0357398,-0.000807353,0.00844372,0.029087,-0.0230826,0.00869292,0.0858075
1413393216755760384,-1.43189,0.729416,1.34722,0.59307,0.00647918,-0.805119,0.00310558,0.0122122,0.0197319,0.047856,-0.000818406,0.00843111,0.0292121,-0.024162,0.0169258,0.0791783
1413393216805760512,-1.46039,0.759482,1.38414,0.592742,0.0208026,-0.805059,0.0102699,0.0189513,0.0115734,0.0878801,-0.000843479,0.00851791,0.0294294,-0.0199907,0.00710498,0.0998551
1413393216855760384,-1.42875,0.72733,1.55132,0.594102,0.00342242,-0.804373,-0.00386312,0.0303608,0.0144996,0.0945386,-0.000832196,0.00856346,0.0295655,-0.0245909,0.0242192,0.0883303
1413393216905760512,-1.46246,0.760293,1.67717,0.594596,0.0230863,-0.80366,0.00731948,0.0435937,0.00424293,0.131002,-0.000874293,0.00860756,0.0297629,-0.0162669,0.00312149,0.121642
1413393216955760384,-1.41617,0.710009,1.72447,0.595036,-0.000199353,-0.803608,-0.0121209,0.0533523,0.00114077,0.146349,-0.000872825,0.00875524,0.0299542,-0.0224501,0.0345909,0.108613
1413393217005760512,-1.40845,0.708904,1.262,0.592772,-0.00464262,-0.805184,-0.0167213,0.0577951,-0.00997336,0.162885,-0.0008839,0.00880304,0.0301281,-0.0109725,0.0381215,0.149825
1413393217055760384,-1.40121,0.70129,1.26987,0.588951,-0.00853853,-0.807861,-0.020616,0.0650893,-0.0319546,0.229159,-0.000913701,0.00885688,0.0302533,0.00297792,0.0420649,0.189923
1413393217105760512,-1.3872,0.686883,1.24493,0.586174,-0.0124905,-0.80975,-0.0234538,0.0751657,-0.0410356,0.277723,-0.000893444,0.00891861,0.030411,0.0141763,0.0472639,0.227017
1413393217155760384,-1.38121,0.681118,1.225,0.58409,-0.0162388,-0.811129,-0.0254118,0.0811135,-0.0652742,0.281321,-0.000892802,0.00896925,0.0305096,0.0207983,0.0463677,0.244141
1413393217205760512,-1.36447,0.666948,1.245,0.58328,-0.0197849,-0.811555,-0.0277992,0.0937583,-0.0818121,0.267882,-0.000898331,0.0090286,0.0306437,0.022568,0.0497766,0.24102
1413393217255760384,-1.35327,0.654842,1.28678,0.583768,-0.0221514,-0.81103,-0.030896,0.098558,-0.0919692,0.248344,-0.000850258,0.00906765,0.03076,0.0223561,0.0590067,0.228788
1413393217305760512,-1.34102,0.640707,1.32258,0.583698,-0.0240967,-0.810921,-0.0335062,0.108907,-0.109619,0.209069,-0.000832589,0.00911845,0.0309218,0.018252,0.0589475,0.216256
1413393217355760384,-1.32994,0.637652,1.41097,0.585814,-0.0233789,-0.809405,-0.0337628,0.115473,-0.130485,0.171704,-0.00085255,0.00914216,0.031135,-0.00314005,0.0484841,0.152546
1413393217405760512,-1.32009,0.628749,1.41579,0.5852,-0.0234758,-0.809808,-0.034667,0.132276,-0.136566,0.158464,-0.000825008,0.00920093,0.0313075,-0.00692915,0.0483277,0.143073
1413393217455760384,-1.31039,0.617404,1.42028,0.584399,-0.0249595,-0.810313,-0.0353336,0.140755,-0.161652,0.14195,-0.000779949,0.00926817,0.0315129,-0.0102083,0.0474305,0.139546
1413393217505760512,-1.30057,0.605477,1.42514,0.584077,-0.0251441,-0.810491,-0.0364272,0.142019,-0.183919,0.129796,-0.00083493,0.00930493,0.0316678,-0.0100437,0.0452001,0.137827
1413393217555760384,-1.29229,0.59522,1.43191,0.584131,-0.02542,-0.810415,-0.0370482,0.163794,-0.185666,0.107199,-0.000754548,0.00931894,0.0318009,-0.00851272,0.0492285,0.136517
1413393217605760512,-1.28212,0.583491,1.43703,0.58446,-0.025451,-0.810137,-0.0379225,0.163114,-0.219476,0.0893759,-0.000769256,0.00935857,0.0319592,-0.0101004,0.0474771,0.131278
1413393217655760384,-1.27176,0.569874,1.43646,0.584595,-0.0257157,-0.810023,-0.0380757,0.17255,-0.225295,0.0977078,-0.000802559,0.00940204,0.0320989,-0.0120427,0.0462747,0.126187
1413393217705760512,-1.26203,0.556906,1.44044,0.584798,-0.0264872,-0.809825,-0.0386426,0.174997,-0.244093,0.141673,-0.000764577,0.00944466,0.0322685,-0.013657,0.0447697,0.125125
1413393217755760384,-1.2517,0.54242,1.44635,0.585226,-0.0265873,-0.809512,-0.0386517,0.180032,-0.273604,0.187383,-0.000772846,0.00949567,0.0324145,-0.0150256,0.0448475,0.119556
1413393217805760512,-1.24213,0.528288,1.45465,0.585143,-0.0267243,-0.809587,-0.0382455,0.187449,-0.278531,0.220423,-0.000796042,0.0095499,0.0325984,-0.0167561,0.0428661,0.120989
1413393217855760384,-1.23167,0.512767,1.46736,0.585224,-0.0276035,-0.809516,-0.037892,0.19585,-0.291798,0.244719,-0.000787757,0.00962849,0.0326913,-0.0164645,0.0412061,0.116824
1413393217905760512,-1.22181,0.497183,1.48061,0.585337,-0.0276279,-0.809459,-0.0373191,0.193604,-0.318701,0.281831,-0.000782702,0.00965752,0.032815,-0.0145631,0.0403269,0.115227
1413393217955760384,-1.21195,0.481176,1.49505,0.586028,-0.0278494,-0.808955,-0.0372412,0.202193,-0.321227,0.300018,-0.00081522,0.00966878,0.0329433,-0.0116878,0.0393803,0.117101
1413393218005760512,-1.20164,0.46427,1.5096,0.58576,-0.0289944,-0.809161,-0.036096,0.207326,-0.342705,0.275429,-0.000767442,0.00965733,0.0330701,-0.0103424,0.0385255,0.118765
1413393218055760384,-1.19095,0.446611,1.52215,0.586323,-0.0310894,-0.808803,-0.0331386,0.211174,-0.355858,0.222582,-0.000800664,0.00966502,0.0331629,-0.00880268,0.0363146,0.116647
1413393218105760512,-1.18009,0.42859,1.53276,0.586009,-0.0338729,-0.809044,-0.02992,0.216448,-0.348316,0.194125,-0.00081305,0.00968068,0.03334,-0.0110775,0.0352357,0.112926
1413393218155760384,-1.16862,0.409738,1.54238,0.586098,-0.0378649,-0.808976,-0.0247589,0.21789,-0.367664,0.143092,-0.000752182,0.00971199,0.0334819,-0.0128409,0.0380915,0.107924
1413393218205760512,-1.15721,0.391299,1.54847,0.586576,-0.0417127,-0.808607,-0.0185288,0.22874,-0.363427,0.0918221,-0.000794399,0.00975313,0.0335799,-0.0143726,0.0374267,0.111882
1413393218255760384,-1.14506,0.373536,1.55197,0.585899,-0.0463855,-0.808956,-0.0127105,0.248054,-0.331709,0.0435224,-0.000806171,0.00977471,0.0337583,-0.0156075,0.0363324,0.11394
1413393218305760512,-1.13272,0.356798,1.55286,0.584668,-0.0500222,-0.809688,-0.00818804,0.241583,-0.333302,0.00779104,-0.00081163,0.00983663,0.0338906,-0.0175896,0.036228,0.115071
1413393218355760384,-1.12017,0.341011,1.55229,0.584442,-0.049842,-0.809866,-0.00779283,0.253666,-0.305716,-0.0321664,-0.000813227,0.00987419,0.034047,-0.0189546,0.0364161,0.115904
1413393218405760512,-1.10697,0.32623,1.55014,0.58506,-0.0476364,-0.809493,-0.0125574,0.263845,-0.26886,-0.0579231,-0.000813705,0.00991868,0.0341806,-0.0204867,0.0368643,0.116308
1413393218455760384,-1.09335,0.312193,1.54689,0.585148,-0.044367,-0.809515,-0.0178382,0.266947,-0.275177,-0.08743,-0.000804115,0.00998778,0.0342962,-0.0214985,0.0376632,0.112484
1413393218505760512,-1.07939,0.298782,1.54228,0.5858,-0.0409523,-0.809094,-0.0230076,0.276554,-0.258291,-0.080978,-0.00079603,0.0100325,0.0344451,-0.0213503,0.0376464,0.111203
1413393218555760384,-1.06508,0.285772,1.53778,0.58612,-0.0380899,-0.808823,-0.0285877,0.287295,-0.240761,-0.07828,-0.000816835,0.0101013,0.034595,-0.0203421,0.036933,0.108429
1413393218605760512,-1.05058,0.272692,1.534,0.587101,-0.0354579,-0.808103,-0.0320186,0.287662,-0.269486,-0.0696061,-0.000816355,0.0101332,0.0347169,-0.0190303,0.0366991,0.106023
1413393218655760384,-1.03577,0.259299,1.53073,0.587732,-0.0336033,-0.807628,-0.0343496,0.300111,-0.261772,-0.0686286,-0.000819988,0.0101572,0.0348484,-0.0159269,0.0387924,0.104975
1413393218705760512,-1.02033,0.245579,1.52766,0.587842,-0.0341949,-0.807506,-0.0347388,0.308944,-0.259356,-0.0553121,-0.000788633,0.0101769,0.034964,-0.0134177,0.0432817,0.105371
1413393218755760384,-1.00451,0.231262,1.52491,0.586313,-0.0331759,-0.808623,-0.0355756,0.31163,-0.288847,-0.0514121,-0.000759699,0.0101769,0.0351108,-0.010914,0.044538,0.106059
1413393218805760512,-0.98849,0.216963,1.52216,0.582129,-0.0340869,-0.811671,-0.0339829,0.324534,-0.278486,-0.0485959,-0.000787762,0.0102267,0.0352381,-0.012189,0.0434954,0.10877
1413393218855760384,-0.972241,0.202456,1.51972,0.575517,-0.0379879,-0.816353,-0.0300944,0.322109,-0.280483,-0.0395237,-0.000802284,0.0102479,0.0353505,-0.0135252,0.0443217,0.108479
1413393218905760512,-0.956446,0.187963,1.51789,0.568777,-0.0406056,-0.821075,-0.0260671,0.306779,-0.295777,-0.0361052,-0.000811235,0.0102659,0.0354784,-0.0152877,0.0447222,0.109
1413393218955760384,-0.941226,0.17345,1.51672,0.563031,-0.0428156,-0.824997,-0.0232951,0.29001,-0.272629,-0.00904437,-0.000810856,0.0103322,0.0356215,-0.0190958,0.0463802,0.107385
1413393219005760512,-0.927488,0.159692,1.51666,0.559343,-0.0449028,-0.827437,-0.021632,0.261886,-0.261407,0.0137123,-0.000827982,0.0103594,0.0357119,-0.0199788,0.0460403,0.104693
1413393219055760384,-0.915361,0.146376,1.51812,0.55749,-0.0458163,-0.828685,-0.0196658,0.228508,-0.260633,0.0363233,-0.000859468,0.0104123,0.0358718,-0.0215413,0.044985,0.105753
1413393219105760512,-0.904581,0.133517,1.52126,0.557838,-0.0455732,-0.828464,-0.0197028,0.204171,-0.238972,0.0666943,-0.000856764,0.010458,0.0359602,-0.0230605,0.0464219,0.102202
1413393219155760384,-0.895001,0.121505,1.52553,0.559,-0.0459807,-0.827678,-0.0188303,0.178276,-0.227001,0.0753464,-0.000847894,0.0104853,0.0360585,-0.0221472,0.0487529,0.0965623
1413393219205760512,-0.88654,0.110029,1.5304,0.55988,-0.0455165,-0.827118,-0.0184019,0.155186,-0.223847,0.0925759,-0.00087483,0.0105218,0.0362045,-0.0232622,0.0492813,0.0934238
1413393219255760384,-0.87918,0.0992931,1.53666,0.561505,-0.0449975,-0.826058,-0.0177696,0.136084,-0.209893,0.115044,-0.000883769,0.010595,0.0363134,-0.0240588,0.0507481,0.093548
1413393219305760512,-0.872831,0.0890346,1.5432,0.562631,-0.0439028,-0.825356,-0.0175173,0.108211,-0.189808,0.121045,-0.000866641,0.010599,0.0364006,-0.0237257,0.0506758,0.0875042
1413393219355760384,-0.868248,0.0798262,1.54953,0.562998,-0.0436634,-0.825133,-0.0168066,0.0719747,-0.184794,0.126713,-0.00091909,0.0106348,0.0365816,-0.0222964,0.0526807,0.0906703
1413393219405760512,-0.865092,0.0708718,1.55532,0.563578,-0.0438693,-0.824759,-0.01512,0.0453278,-0.169337,0.118814,-0.000905516,0.0106719,0.0366652,-0.0203006,0.0527029,0.0837969
1413393219455760384,-0.863689,0.0630819,1.55989,0.564731,-0.0435785,-0.823984,-0.0151834,0.00732844,-0.150622,0.071216,-0.000921426,0.0107277,0.0368287,-0.0224925,0.0526442,0.0854046
1413393219505760512,-0.86426,0.055366,1.56311,0.565724,-0.0431647,-0.82332,-0.0154085,-0.0204314,-0.144696,0.026717,-0.000934793,0.0107963,0.0369768,-0.0229916,0.0521336,0.0846475
1413393219555760384,-0.865863,0.0473683,1.56132,0.567421,-0.0429667,-0.822164,-0.0152744,-0.0430083,-0.132549,-0.00676241,-0.000928298,0.0107877,0.0370109,-0.0188172,0.053418,0.0866158
1413393219605760512,-0.860497,-0.00354225,1.56634,0.571114,-0.0517811,-0.818938,-0.022101,-0.0496248,-0.120756,-0.00825093,-0.000722841,0.010748,0.037144,-0.0370053,0.053993,0.0381037
1413393219655760384,-0.86318,-0.00956279,1.56558,0.573362,-0.0515004,-0.817385,-0.022066,-0.0600329,-0.113755,0.0246965,-0.000740426,0.0107515,0.0372812,-0.0375684,0.0578884,0.0412288
1413393219705760512,-0.866265,-0.0155208,1.56982,0.576251,-0.0510621,-0.815351,-0.0230452,-0.072658,-0.0969246,0.0842366,-0.000713836,0.0107754,0.037346,-0.0390563,0.0594533,0.0383975
1413393219755760384,-0.869961,-0.0209043,1.57595,0.579353,-0.0500853,-0.813171,-0.0244016,-0.0935394,-0.0855801,0.155896,-0.000674824,0.0108022,0.037461,-0.0417339,0.0617392,0.0358431
1413393219805760512,-0.874507,-0.0196722,1.58744,0.582247,-0.0472805,-0.811217,-0.0260994,-0.0769712,-0.0778905,0.207843,-0.000780205,0.0108858,0.0376094,-0.0457764,0.0641169,0.0429188
1413393219855760384,-0.879138,-0.0224784,1.59987,0.583254,-0.0466399,-0.810507,-0.0268102,-0.0710474,-0.0686621,0.316946,-0.000717618,0.0108708,0.0376906,-0.046346,0.0656183,0.0438313
1413393219905760512,-0.882396,-0.0249939,1.61669,0.58449,-0.0453865,-0.809646,-0.0280056,-0.0723637,-0.069385,0.337723,-0.000725572,0.0109174,0.0378227,-0.0484376,0.0655601,0.0481682
1413393219955760384,-0.886607,-0.02725,1.63126,0.585684,-0.0438729,-0.80881,-0.029585,-0.0772097,-0.0620017,0.337415,-0.000804153,0.0109701,0.03796,-0.0509398,0.0633913,0.05172
1413393220005760512,-0.889933,-0.0295686,1.65205,0.586718,-0.0431737,-0.808078,-0.0301511,-0.0690035,-0.0645686,0.296405,-0.000774397,0.0110194,0.0380565,-0.0552089,0.0630243,0.0545917
1413393220055760384,-0.891286,-0.046414,1.664,0.588448,-0.0457289,-0.806559,-0.0331742,-0.0501298,-0.071543,0.24116,-0.000726442,0.0110352,0.0381799,-0.0631768,0.0613892,0.0398673
1413393220105760512,-0.89367,-0.0478551,1.68354,0.589079,-0.0456087,-0.806101,-0.0332691,-0.0451625,-0.0676347,0.216286,-0.000767488,0.0110978,0.0382807,-0.066198,0.061344,0.0393728
1413393220155760384,-0.894896,-0.0472601,1.68207,0.589325,-0.0439673,-0.806018,-0.033154,-0.0380073,-0.076314,0.196036,-0.000784625,0.0111364,0.0383716,-0.066879,0.0661294,0.0442852
1413393220205760512,-0.896871,-0.0502877,1.69385,0.589864,-0.0432538,-0.805635,-0.0338038,-0.036624,-0.0794247,0.218097,-0.000799005,0.0111657,0.0384627,-0.0680864,0.0665465,0.0482624
1413393220255760384,-0.898613,-0.05391,1.70715,0.590541,-0.0442745,-0.805088,-0.0336818,-0.0318267,-0.0726184,0.217094,-0.000837102,0.0112167,0.0385649,-0.0715557,0.0651755,0.0435788
1413393220305760512,-0.899824,-0.0574341,1.71568,0.59079,-0.0427163,-0.804932,-0.0350366,-0.0226505,-0.0918749,0.222288,-0.000840667,0.0112876,0.0387088,-0.0754046,0.0669058,0.0438447
1413393220355760384,-0.900641,-0.0615792,1.72875,0.591344,-0.0429191,-0.804533,-0.0345961,-0.0169839,-0.09485,0.226297,-0.000859072,0.0113617,0.0387899,-0.0781221,0.0668871,0.0444035
1413393220405760512,-0.901224,-0.064795,1.73952,0.591345,-0.0430577,-0.804535,-0.0343776,-0.00745563,-0.0923106,0.241042,-0.00090165,0.0113412,0.0389081,-0.0733886,0.0763793,0.0523294
1413393220455760384,-0.901948,-0.0371011,1.75532,0.590384,-0.0383268,-0.805706,-0.0285799,0.00966916,-0.112839,0.237966,-0.000994457,0.0113684,0.0389277,-0.0648309,0.113758,0.0670497
1413393220505760512,-0.901376,-0.0412097,1.76697,0.588581,-0.0388265,-0.807031,-0.0276854,0.0154973,-0.116034,0.225143,-0.0010358,0.0114117,0.0390734,-0.0662016,0.116725,0.0769962
1413393220555760384,-0.900391,-0.0463718,1.77269,0.586922,-0.0392186,-0.808231,-0.0273489,0.0297187,-0.112752,0.18609,-0.00103117,0.0114358,0.0391179,-0.0661782,0.117656,0.0687844
1413393220605760512,-0.899096,-0.0510712,1.77833,0.586082,-0.0396505,-0.808828,-0.0270931,0.0247375,-0.126761,0.129098,-0.00102531,0.0114401,0.0392326,-0.067768,0.117566,0.06624
1413393220655760384,-0.897511,-0.0551803,1.79797,0.586692,-0.0392839,-0.808421,-0.0265594,0.0271901,-0.131922,0.0745474,-0.00107477,0.0115196,0.0393526,-0.0734442,0.117018,0.0721667
1413393220705760512,-0.896483,-0.0559432,1.77703,0.587109,-0.0391229,-0.80818,-0.0248603,0.0438747,-0.118146,0.0246385,-0.00114657,0.0115345,0.0394217,-0.072347,0.124139,0.0789491
1413393220755760384,-0.89458,-0.0597363,1.76932,0.58674,-0.0403385,-0.808482,-0.0216134,0.0368471,-0.141928,-0.0234484,-0.00109172,0.0115852,0.0394989,-0.0716251,0.134068,0.0777209
1413393220805760512,-0.892196,-0.0639536,1.76888,0.584626,-0.0425727,-0.810002,-0.0172293,0.04778,-0.13194,-0.0144791,-0.00112499,0.0116168,0.0396318,-0.0688145,0.140173,0.0809676
1413393220855760384,-0.889686,-0.0696881,1.76779,0.583112,-0.0458682,-0.810984,-0.0134903,0.0543507,-0.099993,0.0378843,-0.00110339,0.0116442,0.0397393,-0.0692351,0.144671,0.0785441
1413393220905760512,-0.887056,-0.0747344,1.77173,0.582052,-0.0472695,-0.811702,-0.0110158,0.0585581,-0.118681,0.0920239,-0.0010557,0.0117455,0.0398367,-0.0718842,0.148642,0.0767788
1413393220955760384,-0.884881,-0.0793091,1.77941,0.580778,-0.0482136,-0.812575,-0.00969304,0.0493659,-0.0858695,0.198381,-0.00108478,0.0118098,0.0399523,-0.069885,0.150358,0.0753597
1413393221005760512,-0.882119,-0.0826688,1.78733,0.581209,-0.0488939,-0.812209,-0.0110366,0.0421485,-0.045057,0.22344,-0.00112377,0.0119116,0.0401742,-0.0741032,0.147498,0.0780211
1413393221055760384,-0.880501,-0.0845593,1.79907,0.580496,-0.0489951,-0.812706,-0.0115822,0.0337799,-0.0526304,0.253365,-0.00106724,0.0119275,0.0402458,-0.0703458,0.152046,0.0807987
1413393221105760512,-0.880183,-0.0765113,1.81043,0.579277,-0.0477855,-0.813669,-0.00988678,0.0240327,-0.02543,0.266045,-0.00112418,0.0119662,0.0403667,-0.0652625,0.167308,0.0851536
1413393221155760384,-0.877194,-0.074376,1.83404,0.578603,-0.0476517,-0.814152,-0.0102666,0.0264127,0.000543259,0.281952,-0.00109187,0.0119986,0.0404614,-0.0604805,0.177541,0.0853927
1413393221205760512,-0.878616,-0.0488616,1.8351,0.576829,-0.0440573,-0.815647,-0.00687211,0.0121522,-0.00509177,0.288324,-0.00115355,0.0120716,0.0405776,-0.0537017,0.214273,0.0967155
1413393221255760384,-0.879066,-0.039884,1.89906,0.575306,-0.0428279,-0.81679,-0.00649757,0.0121313,0.0134147,0.283686,-0.00118467,0.0120941,0.0406558,-0.0492044,0.222847,0.0996728
1413393221305760512,-0.877058,-0.0400295,1.90361,0.573389,-0.0424423,-0.818136,-0.00882209,0.00891066,0.0309983,0.269072,-0.00119564,0.0121192,0.0407642,-0.0447836,0.225487,0.105601
1413393221355760384,-0.875096,-0.0383944,1.99736,0.571473,-0.0421691,-0.819483,-0.00936768,-0.0103021,0.0199672,0.304685,-0.00117918,0.0121486,0.0409103,-0.04244,0.222202,0.112758
1413393221405760512,-0.876755,-0.0409057,1.99786,0.56984,-0.0418558,-0.820612,-0.0113053,-0.0256572,0.0323545,0.307645,-0.00118874,0.0121931,0.0409757,-0.0392925,0.213729,0.113288
1413393221455760384,-0.877905,-0.0441802,1.99811,0.56953,-0.0416057,-0.820787,-0.014651,-0.0414044,0.0485243,0.287516,-0.00117151,0.012187,0.0410975,-0.0400455,0.207659,0.106824
1413393221505760512,-0.881512,-0.0477337,1.94068,0.568911,-0.0417231,-0.821167,-0.0168983,-0.0566865,0.0377392,0.224668,-0.00114826,0.0122532,0.0412141,-0.0434702,0.200826,0.100536
1413393221555760384,-0.88034,-0.0654801,2.01078,0.571699,-0.0460378,-0.818822,-0.0239162,-0.068684,0.0413441,0.172849,-0.00110589,0.0122147,0.0412953,-0.0718869,0.20989,0.019974
1413393221605760512,-0.883434,-0.0658039,2.02221,0.571913,-0.045349,-0.818642,-0.0261507,-0.0968188,0.0391525,0.154884,-0.00109291,0.0122464,0.0413781,-0.0730048,0.210765,0.0111663
1413393221655760384,-0.889558,-0.0625788,2.02975,0.572213,-0.0438557,-0.818492,-0.0268283,-0.117936,0.0183314,0.160153,-0.00104825,0.0122796,0.0414571,-0.0691302,0.219798,0.00974357
1413393221705760512,-0.8955,-0.061894,2.03937,0.57528,-0.0432751,-0.816343,-0.0276408,-0.126835,0.0220712,0.172449,-0.00104759,0.0122718,0.0415521,-0.0653185,0.219596,0.0109278
1413393221755760384,-0.901963,-0.0612692,2.04828,0.578791,-0.0431435,-0.813878,-0.0272339,-0.136084,0.012876,0.166237,-0.00103893,0.0123075,0.0416242,-0.0640192,0.220031,0.00825669
1413393221805760512,-0.908827,-0.0611332,2.05655,0.582045,-0.042169,-0.811618,-0.0268843,-0.138788,-0.00670879,0.171287,-0.00104297,0.0123391,0.0417392,-0.0626967,0.218991,0.0101057
1413393221855760384,-0.91572,-0.0610615,2.06506,0.583952,-0.0414779,-0.810276,-0.0270679,-0.134278,0.00818037,0.16245,-0.00103287,0.0123637,0.0418644,-0.0614054,0.219956,0.010854
1413393221905760512,-0.922592,-0.0611283,2.07305,0.585103,-0.0415277,-0.809468,-0.0262974,-0.135626,-0.0136216,0.150907,-0.000985435,0.0123804,0.0418854,-0.0552064,0.2285,0.00627225
1413393221955760384,-0.929325,-0.0615712,2.08075,0.586609,-0.0406171,-0.808468,-0.0249078,-0.131354,-0.0162769,0.128257,-0.000991087,0.0123707,0.0420007,-0.0546356,0.225778,0.0089922
1413393222005760512,-0.935757,-0.0622998,2.08649,0.586687,-0.0410139,-0.808408,-0.0243395,-0.123963,-0.0021266,0.0761969,-0.00102172,0.0124774,0.0421631,-0.0625667,0.217566,0.0129938
1413393222055760384,-0.941833,-0.0626864,2.0888,0.587363,-0.0408665,-0.807951,-0.0234512,-0.119533,-0.0204819,0.0176033,-0.00108547,0.0123907,0.0420453,-0.050918,0.207492,0.0175591
1413393222105760512,-0.947813,-0.0640566,2.08784,0.588047,-0.0405945,-0.807508,-0.0220156,-0.124038,-0.0303662,-0.0442209,-0.00109903,0.0125142,0.0422691,-0.0571665,0.207904,0.0172256
1413393222155760384,-0.954063,-0.0654341,2.08471,0.588024,-0.0397589,-0.807569,-0.0219085,-0.118179,-0.0174483,-0.100427,-0.00112648,0.0125564,0.0424081,-0.0617073,0.205641,0.0193588
1413393222205760512,-0.959797,-0.0666559,2.07768,0.587875,-0.039268,-0.807708,-0.0216706,-0.109787,-0.0267974,-0.160986,-0.00105513,0.0126237,0.0424396,-0.0630014,0.211492,0.0128604
1413393222255760384,-0.965094,-0.0678221,2.06747,0.586723,-0.0388897,-0.808591,-0.0205845,-0.101521,-0.0370972,-0.213572,-0.00109491,0.0126379,0.0425426,-0.0650005,0.212503,0.017276
1413393222305760512,-0.969941,-0.0688973,2.05536,0.584404,-0.0379182,-0.810307,-0.0209024,-0.0967861,-0.0210557,-0.24554,-0.00108034,0.0127166,0.0426248,-0.0669326,0.213669,0.0177432
1413393222355760384,-0.974852,-0.0703676,2.04291,0.580171,-0.0381821,-0.813344,-0.020392,-0.100421,-0.0321367,-0.244609,-0.00110281,0.0127837,0.0427274,-0.0684478,0.212793,0.0131987
1413393222405760512,-0.979951,-0.0718294,2.03096,0.576184,-0.0378758,-0.81621,-0.0194788,-0.107786,-0.0386413,-0.226353,-0.00105361,0.0128001,0.0428297,-0.06311,0.220369,0.00765451
1413393222455760384,-0.985552,-0.0733113,2.02075,0.572756,-0.0364275,-0.818651,-0.020843,-0.115537,-0.0289922,-0.201774,-0.0010492,0.0128229,0.042925,-0.0617752,0.222803,0.00715596
1413393222505760512,-0.991835,-0.0749452,2.01158,0.570038,-0.0367405,-0.820562,-0.0196141,-0.138892,-0.042892,-0.17357,-0.00101594,0.0128172,0.0430167,-0.0593673,0.226465,0.00653812
1413393222555760384,-0.999106,-0.0770564,2.00437,0.569003,-0.0376425,-0.821304,-0.0166909,-0.144762,-0.0513681,-0.114008,-0.00100441,0.0128436,0.0430842,-0.0561717,0.227046,0.00116574
1413393222605760512,-1.00697,-0.0791901,1.99843,0.568003,-0.0376932,-0.822006,-0.0160481,-0.171691,-0.0413664,-0.0848131,-0.000960865,0.012836,0.0431651,-0.0534745,0.230182,0.000237422
1413393222655760384,-1.01595,-0.0812442,1.9953,0.56659,-0.0377322,-0.822995,-0.0152119,-0.199623,-0.0452651,-0.0259763,-0.000954342,0.0128335,0.0432476,-0.051229,0.230492,-7.69399e-05
1413393222705760512,-1.02638,-0.0832017,1.99336,0.566869,-0.0367324,-0.822836,-0.0158461,-0.220667,-0.0452756,0.0215113,-0.000953564,0.0128468,0.0433269,-0.0565635,0.230487,0.00391657
1413393222755760384,-1.03771,-0.0849903,1.994,0.565506,-0.0370649,-0.823784,-0.0144826,-0.242584,-0.0359488,0.0544107,-0.000984323,0.0128754,0.0434218,-0.0607012,0.227929,0.00395767
1413393222805760512,-1.05023,-0.0862446,1.99618,0.563876,-0.037,-0.824916,-0.0137388,-0.265863,-0.0313431,0.104664,-0.00103746,0.012896,0.0435057,-0.0645623,0.226501,0.00551458
1413393222855760384,-1.06368,-0.0872227,2.00082,0.561886,-0.0371434,-0.826283,-0.0126855,-0.280408,-0.0236393,0.135007,-0.00104688,0.0129095,0.04356,-0.0652577,0.228022,0.00317032
1413393222905760512,-1.07817,-0.0881912,2.009,0.560943,-0.0369757,-0.826956,-0.0109791,-0.304009,-0.014332,0.177106,-0.00103782,0.0129862,0.0436908,-0.068568,0.229207,0.00587517
1413393222955760384,-1.09411,-0.0885525,2.01919,0.55938,-0.0360896,-0.828065,-0.0100361,-0.335158,-0.00760609,0.224402,-0.00106504,0.0129709,0.0437453,-0.0690785,0.231118,0.0079245
1413393223005760512,-1.11122,-0.0888404,2.03105,0.560575,-0.0351352,-0.827299,-0.00990913,-0.351047,-0.00449449,0.23639,-0.00105604,0.0130426,0.0438175,-0.0765941,0.232574,0.00814586
1413393223055760384,-1.12955,-0.0889637,2.04298,0.562579,-0.0333663,-0.826016,-0.0095161,-0.378,-0.00638979,0.257035,-0.00103817,0.0130867,0.0438951,-0.0781216,0.235402,0.00617449
1413393223105760512,-1.14892,-0.0889585,2.05542,0.56447,-0.0323511,-0.824773,-0.00879172,-0.400063,0.000611319,0.256823,-0.00101567,0.0130666,0.0439697,-0.0770392,0.23533,0.00507482
1413393223155760384,-1.1693,-0.0889062,2.06751,0.565982,-0.0317185,-0.82375,-0.00974382,-0.424531,-0.00232201,0.257193,-0.00101562,0.0130414,0.0439775,-0.073724,0.2371,0.00281721
1413393223205760512,-1.19072,-0.0892738,2.0802,0.56783,-0.0288844,-0.822564,-0.0111487,-0.443524,-0.0128507,0.259542,-0.00103635,0.0130843,0.0440908,-0.0783561,0.236033,-0.00289579
1413393223255760384,-1.21335,-0.0899065,2.09153,0.568815,-0.0279206,-0.821902,-0.0121676,-0.463404,-0.0102629,0.216001,-0.000987106,0.0132984,0.0444885,-0.0975477,0.252253,-0.0171285
1413393223305760512,-1.23704,-0.0910188,2.10211,0.570458,-0.0274317,-0.820778,-0.0122432,-0.484833,-0.0291942,0.175338,-0.000903519,0.0131366,0.0443621,-0.08266,0.254199,-0.0175423
1413393223355760384,-1.26145,-0.0925707,2.10695,0.57155,-0.0270243,-0.820023,-0.0128012,-0.503881,-0.0361624,0.0885204,-0.000892544,0.0129796,0.0442816,-0.0686195,0.25092,-0.0118627
1413393223405760512,-1.28677,-0.0944942,2.10871,0.573264,-0.0267429,-0.818831,-0.0130121,-0.512722,-0.0422478,-0.0130179,-0.000868499,0.01298,0.0443942,-0.0714356,0.253166,-0.015801
1413393223455760384,-1.31323,-0.0965796,2.10647,0.575192,-0.0259932,-0.817481,-0.014278,-0.524901,-0.0463526,-0.128667,-0.000722204,0.0132017,0.0447833,-0.0938403,0.275527,-0.0303392
1413393223505760512,-1.33974,-0.0989845,2.09952,0.577804,-0.0259675,-0.815626,-0.0149553,-0.530543,-0.0499213,-0.226044,-0.000627131,0.0132837,0.0448568,-0.0949564,0.283661,-0.031923
1413393223555760384,-1.36605,-0.102086,2.08656,0.58068,-0.02663,-0.813556,-0.0151344,-0.536776,-0.0579617,-0.303157,-0.00062066,0.0133253,0.0449098,-0.0942122,0.277224,-0.0246975
1413393223605760512,-1.39251,-0.104962,2.07016,0.583299,-0.0267542,-0.811652,-0.0163704,-0.522731,-0.0572932,-0.371701,-0.000642416,0.0133487,0.0449693,-0.0907181,0.269666,-0.0205475
1413393223655760384,-1.41828,-0.108048,2.05068,0.585561,-0.0277256,-0.809962,-0.0176595,-0.518615,-0.0629848,-0.401802,-0.000625781,0.0134348,0.0450571,-0.0933854,0.26366,-0.0164835
1413393223705760512,-1.4439,-0.111423,2.03062,0.586551,-0.028993,-0.809176,-0.0187623,-0.50987,-0.0703834,-0.374995,-0.000642477,0.0135015,0.0451791,-0.0925349,0.255852,-0.0128915
1413393223755760384,-1.46906,-0.115401,2.01348,0.587422,-0.0301801,-0.80847,-0.0200319,-0.508977,-0.0800335,-0.300191,-0.000670329,0.0135875,0.04528,-0.097313,0.250456,-0.0138726
1413393223805760512,-1.4938,-0.119863,2.00003,0.588475,-0.0322495,-0.807608,-0.0206815,-0.499768,-0.0995252,-0.241694,-0.000648391,0.0136389,0.0454815,-0.0985866,0.249171,-0.0163151
1413393223855760384,-1.51833,-0.124914,1.99095,0.587273,-0.0340152,-0.808388,-0.0215282,-0.478101,-0.109912,-0.146381,-0.000655085,0.0136397,0.0455243,-0.0990252,0.244645,-0.0227784
1413393223905760512,-1.54245,-0.13033,1.98488,0.587426,-0.0347158,-0.808166,-0.024375,-0.499057,-0.111678,-0.0806794,-0.00070017,0.0136858,0.0456135,-0.101071,0.244219,-0.0288291
1413393223955760384,-1.56711,-0.136218,1.98392,0.587016,-0.0364267,-0.808351,-0.0255834,-0.500383,-0.131147,-0.0228537,-0.000664695,0.0137125,0.0457048,-0.0963877,0.245451,-0.0393947
1413393224005760512,-1.59221,-0.142915,1.98414,0.587823,-0.0379766,-0.807664,-0.0264632,-0.503845,-0.143282,0.0105079,-0.000670223,0.0137135,0.0457997,-0.0951788,0.247164,-0.0417827
1413393224055760384,-1.61774,-0.150167,1.98467,0.587176,-0.040336,-0.80802,-0.0264784,-0.510645,-0.156222,0.00352636,-0.000654761,0.0138229,0.0459039,-0.100678,0.250752,-0.0457092
1413393224105760512,-1.64345,-0.158634,1.98371,0.5882,-0.0426937,-0.807148,-0.026665,-0.510176,-0.182721,-0.0400464,-0.000606425,0.0138989,0.0460636,-0.0947165,0.251137,-0.0469903
1413393224155760384,-1.66865,-0.168179,1.98069,0.588776,-0.0438842,-0.806635,-0.0275053,-0.508453,-0.19628,-0.0660511,-0.000576405,0.0138853,0.0460827,-0.0832206,0.246183,-0.0489728
1413393224205760512,-1.69386,-0.178929,1.97922,0.588427,-0.0421918,-0.806902,-0.0297283,-0.498323,-0.212575,-0.130915,-0.000588886,0.0139123,0.046153,-0.077227,0.240863,-0.0420017
1413393224255760384,-1.71846,-0.190564,1.97161,0.58955,-0.0430832,-0.805973,-0.0313377,-0.49521,-0.224075,-0.160593,-0.00064555,0.0138879,0.0462072,-0.072799,0.228546,-0.0301856
1413393224305760512,-1.74273,-0.202691,1.96163,0.591048,-0.0444544,-0.804784,-0.0317636,-0.484204,-0.237291,-0.221659,-0.000676756,0.0138983,0.0462909,-0.0704645,0.220787,-0.0210594
1413393224355760384,-1.76725,-0.214872,1.94725,0.591083,-0.0432338,-0.804757,-0.0334494,-0.48558,-0.241264,-0.26902,-0.000706934,0.0139383,0.046361,-0.0655779,0.215292,-0.0203385
1413393224405760512,-1.79125,-0.227439,1.93215,0.590659,-0.0445822,-0.804915,-0.0353076,-0.473425,-0.238335,-0.311801,-0.000704551,0.0139656,0.0464366,-0.0604439,0.206863,-0.0142227
1413393224455760384,-1.81455,-0.239654,1.91406,0.591525,-0.0482882,-0.804029,-0.0361118,-0.453355,-0.246579,-0.359874,-0.000712889,0.0139769,0.0465262,-0.0558053,0.205371,-0.0170681
1413393224505760512,-1.83651,-0.252257,1.8936,0.591701,-0.0531674,-0.803533,-0.03739,-0.426369,-0.237213,-0.410225,-0.000706425,0.0139335,0.046577,-0.0444243,0.204132,-0.00991706
1413393224555760384,-1.85729,-0.264222,1.87173,0.59151,-0.0605459,-0.80315,-0.0374324,-0.411473,-0.234629,-0.44325,-0.000691981,0.0139685,0.0466923,-0.0449656,0.202095,-0.00602827
1413393224605760512,-1.87737,-0.276487,1.85437,0.592392,-0.0679919,-0.80183,-0.038971,-0.397594,-0.226637,-0.460446,-0.00075284,0.0139672,0.0468168,-0.039899,0.19522,0.00108574
1413393224655760384,-1.89728,-0.287156,1.83602,0.592211,-0.0765414,-0.80111,-0.0406231,-0.388733,-0.208723,-0.417751,-0.000734722,0.0139631,0.0469214,-0.0377377,0.193454,-0.00872292
1413393224705760512,-1.91582,-0.298133,1.81411,0.590402,-0.0848259,-0.801496,-0.0428248,-0.371617,-0.213733,-0.413557,-0.000769828,0.0139146,0.0470832,-0.0280029,0.180285,-0.0119798
1413393224755760384,-1.93452,-0.308125,1.79467,0.588427,-0.0935322,-0.801872,-0.0448128,-0.374439,-0.1941,-0.398249,-0.000810846,0.0138494,0.0470464,-0.026903,0.179945,-0.0148361
1413393224805760512,-1.95259,-0.317562,1.77378,0.586395,-0.101598,-0.802133,-0.0490158,-0.341824,-0.171715,-0.381458,-0.000864592,0.0138149,0.0471282,-0.0231804,0.17602,-0.0151457
1413393224855760384,-1.96957,-0.326277,1.75508,0.584214,-0.109941,-0.80242,-0.0522431,-0.336932,-0.177323,-0.333048,-0.000908947,0.013781,0.0472885,-0.019978,0.174082,-0.0144935
1413393224905760512,-1.98668,-0.334465,1.74009,0.58303,-0.115718,-0.802223,-0.0558854,-0.3393,-0.158478,-0.276027,-0.000908407,0.0137804,0.0472883,-0.0171726,0.172232,-0.0122979
1413393224955760384,-2.00255,-0.34208,1.72675,0.581138,-0.121712,-0.802504,-0.0587513,-0.306124,-0.133964,-0.214454,-0.00130517,0.0137136,0.0472713,-0.0146221,0.171154,-0.0102447
1413393225005760512,-2.01784,-0.349025,1.71728,0.579335,-0.125105,-0.802989,-0.0626842,-0.305393,-0.140704,-0.142692,-0.00130511,0.0137136,0.0472714,-0.0121832,0.169463,-0.00778153
1413393225055760384,-2.03303,-0.355364,1.71104,0.577506,-0.126652,-0.803755,-0.0665189,-0.298283,-0.121201,-0.127276,-0.0014319,0.0136455,0.0472851,-0.010257,0.168317,-0.00551342
1413393225105760512,-2.04819,-0.360506,1.7076,0.576345,-0.128895,-0.803968,-0.0696274,-0.282232,-0.0912485,-0.055924,-0.00147452,0.0136271,0.0472948,-0.008939,0.168013,-0.00478686
1413393225155760384,-2.06215,-0.365078,1.70516,0.576009,-0.130208,-0.803781,-0.0720833,-0.271698,-0.103922,-0.0715345,-0.00149201,0.0137772,0.0473986,-0.0168582,0.17263,-0.00463869
1413393225205760512,-2.07547,-0.369169,1.70155,0.575318,-0.132091,-0.803985,-0.0718966,-0.259801,-0.0873764,-0.0599013,-0.00134114,0.0141292,0.0477557,-0.0327914,0.184188,-0.00417653
1413393225255760384,-2.08789,-0.373108,1.69735,0.574439,-0.132785,-0.804338,-0.0736756,-0.240885,-0.0756948,-0.052585,-0.00130516,0.0142852,0.047876,-0.0398477,0.187896,-0.00416588
1413393225305760512,-2.09993,-0.376546,1.69607,0.573505,-0.134776,-0.804602,-0.0744585,-0.239992,-0.0800185,-0.0796133,-0.00133129,0.0144236,0.0477979,-0.0410197,0.189473,-0.00834773
1413393225355760384,-2.11174,-0.379599,1.69362,0.573376,-0.137408,-0.80402,-0.0768852,-0.223621,-0.0561853,-0.0593005,-0.00131722,0.0144315,0.0479086,-0.0408802,0.189947,-0.00994393
1413393225405760512,-2.12315,-0.382399,1.69195,0.572614,-0.143417,-0.803421,-0.0778454,-0.228579,-0.0400424,-0.0390519,-0.00138853,0.0143379,0.0478615,-0.0397376,0.187647,-0.0101267
1413393225455760384,-2.13501,-0.384246,1.69257,0.571542,-0.150278,-0.802749,-0.0796918,-0.240189,-0.0262674,-0.0265918,-0.00150369,0.0141461,0.0477194,-0.0379973,0.184946,-0.0111989
1413393225505760512,-2.14653,-0.384743,1.69229,0.571404,-0.159274,-0.800877,-0.0820094,-0.224795,0.0120028,-0.0174482,-0.00158041,0.0140124,0.0477722,-0.0382665,0.182861,-0.0120798
1413393225555760384,-2.15785,-0.383595,1.69119,0.569465,-0.16904,-0.799882,-0.085585,-0.218779,0.037167,-0.0102598,-0.00159531,0.0140132,0.0480411,-0.0436121,0.181365,-0.0100459
1413393225605760512,-2.16925,-0.380203,1.69472,0.568278,-0.180212,-0.797783,-0.0901474,-0.234516,0.0737666,0.0197578,-0.00159463,0.0142661,0.0483027,-0.0435327,0.185143,-0.00726343
1413393225655760384,-2.18045,-0.375562,1.69386,0.567428,-0.190654,-0.795161,-0.0969299,-0.220367,0.113351,0.0296012,-0.00156126,0.0141586,0.0485521,-0.0491775,0.180736,-0.00449705
1413393225705760512,-2.19101,-0.369356,1.69574,0.566694,-0.203153,-0.791688,-0.104003,-0.211511,0.141389,0.0539907,-0.00155891,0.014183,0.0487336,-0.0543562,0.17995,-0.00218484
1413393225755760384,-2.20155,-0.361823,1.69824,0.565449,-0.212977,-0.788561,-0.114367,-0.215284,0.155682,0.0600181,-0.00152844,0.0141411,0.0488557,-0.0595278,0.178231,-0.000530715
1413393225805760512,-2.21147,-0.353169,1.7017,0.564099,-0.221725,-0.785287,-0.126311,-0.190063,0.187748,0.0868956,-0.00154642,0.0142319,0.048878,-0.0662536,0.179923,0.00095258
1413393225855760384,-2.2203,-0.343957,1.70495,0.559826,-0.230931,-0.783103,-0.141477,-0.173339,0.190462,0.0293146,-0.00157102,0.0142969,0.0489165,-0.0693321,0.181139,0.00169237
1413393225905760512,-2.22905,-0.334577,1.704,0.558544,-0.236398,-0.780449,-0.151805,-0.171544,0.188809,-0.0625813,-0.00159125,0.014399,0.0489965,-0.0756562,0.182163,0.0033964
1413393225955760384,-2.23768,-0.324702,1.69823,0.554286,-0.244188,-0.77786,-0.167552,-0.17988,0.196117,-0.167496,-0.00157018,0.0144146,0.0490695,-0.0752317,0.18179,0.00380243
1413393226005760512,-2.24646,-0.315034,1.68851,0.552261,-0.250496,-0.774272,-0.181004,-0.180273,0.188478,-0.239877,-0.00155768,0.014452,0.0491503,-0.0757942,0.182384,0.00449439
1413393226055760384,-2.2554,-0.305905,1.6771,0.55062,-0.260914,-0.769529,-0.191226,-0.188401,0.177613,-0.255595,-0.00153381,0.0145231,0.0492707,-0.077553,0.183737,0.00540848
1413393226105760512,-2.26568,-0.297764,1.66256,0.549719,-0.2717,-0.764685,-0.198105,-0.198879,0.151755,-0.249382,-0.00153475,0.0145189,0.0493048,-0.0759585,0.183889,0.00461073
1413393226155760384,-2.2758,-0.290057,1.6509,0.54903,-0.28239,-0.759702,-0.204145,-0.206139,0.149773,-0.212164,-0.00150282,0.0145278,0.0493566,-0.0733413,0.183658,0.00410648
1413393226205760512,-2.2858,-0.28279,1.64415,0.547622,-0.292762,-0.75536,-0.209361,-0.208394,0.127725,-0.147926,-0.00147719,0.0145419,0.0494621,-0.0711557,0.184704,0.00510763
1413393226255760384,-2.29837,-0.275634,1.63922,0.545918,-0.302913,-0.751952,-0.211625,-0.228222,0.132654,-0.0770004,-0.0014506,0.0145683,0.0494994,-0.0680119,0.18573,0.00773841
1413393226305760512,-2.31435,-0.265466,1.6386,0.543823,-0.310632,-0.749407,-0.214833,-0.213267,0.129768,-0.0603096,-0.0014007,0.0146391,0.049596,-0.0635513,0.183972,0.0159045
1413393226355760384,-2.32418,-0.264935,1.64211,0.535791,-0.338526,-0.738929,-0.228719,-0.223822,0.131642,-0.0192017,0.000553128,0.0145749,0.0489413,-0.05993,0.174081,0.0172296
1413393226405760512,-2.34265,-0.258954,1.63808,0.529585,-0.348455,-0.737686,-0.232247,-0.218886,0.133205,-0.0251247,0.000989441,0.0146476,0.0488854,-0.0493645,0.166062,0.0334586
1413393226455760384,-2.36157,-0.241002,1.61517,0.525468,-0.352681,-0.739033,-0.230935,-0.232142,0.135716,-0.0493813,0.000888661,0.0146618,0.0490735,-0.0444168,0.157906,0.0367791
1413393226505760512,-2.37512,-0.236342,1.61473,0.521706,-0.358256,-0.739224,-0.230269,-0.24353,0.14479,-0.0983602,0.000923093,0.0146422,0.04905,-0.0403663,0.15982,0.0368509
1413393226555760384,-2.38791,-0.229616,1.62563,0.519383,-0.362216,-0.739394,-0.228776,-0.243218,0.15253,-0.134115,0.000923499,0.0146258,0.0491283,-0.0356755,0.161812,0.0385115
1413393226605760512,-2.39813,-0.222017,1.59307,0.513281,-0.372169,-0.737644,-0.232198,-0.235178,0.174512,-0.161897,0.00155601,0.0147111,0.0489403,-0.0219394,0.150496,0.0638739
1413393226655760384,-2.40796,-0.21194,1.57352,0.512371,-0.372454,-0.738025,-0.232538,-0.24409,0.192982,-0.143849,0.00147989,0.0146837,0.0490487,-0.0202211,0.148246,0.0590633
1413393226705760512,-2.41981,-0.20066,1.56186,0.512807,-0.367853,-0.738797,-0.236415,-0.257262,0.213139,-0.137869,0.00130644,0.0146395,0.0491622,-0.0186027,0.148632,0.0553317
1413393226755760384,-2.43329,-0.189764,1.55724,0.513435,-0.36531,-0.73773,-0.242256,-0.255424,0.236406,-0.117091,0.00135768,0.014645,0.0492213,-0.0182959,0.148785,0.0559848
1413393226805760512,-2.44655,-0.178857,1.55591,0.512414,-0.363263,-0.737638,-0.247715,-0.283948,0.232712,-0.101085,0.00145273,0.0146236,0.0491952,-0.0103179,0.14999,0.0509408
1413393226855760384,-2.46114,-0.166957,1.55019,0.512462,-0.36006,-0.73796,-0.251308,-0.291289,0.236704,-0.121808,0.00149637,0.0146413,0.0492777,-0.0127429,0.149333,0.0514573
1413393226905760512,-2.47642,-0.15495,1.54522,0.511677,-0.357181,-0.738608,-0.255082,-0.302228,0.23697,-0.106041,0.0015358,0.0145582,0.0493892,-0.00941995,0.148978,0.0490159
1413393226955760384,-2.49223,-0.143279,1.54051,0.511383,-0.355635,-0.739037,-0.256585,-0.328266,0.228819,-0.088571,0.00156616,0.0144929,0.0494125,-0.00520351,0.148047,0.0458986
1413393227005760512,-2.50933,-0.131992,1.53555,0.511328,-0.354277,-0.739313,-0.257775,-0.340212,0.224797,-0.0872394,0.00160618,0.0144244,0.0494852,-0.00583379,0.146021,0.0428398
1413393227055760384,-2.52728,-0.120994,1.53132,0.512336,-0.354224,-0.738694,-0.257622,-0.359154,0.221848,-0.0800637,0.00160224,0.0143709,0.0495171,-0.00398739,0.144768,0.0379405
1413393227105760512,-2.54594,-0.110116,1.52692,0.514126,-0.354276,-0.737516,-0.257359,-0.3729,0.209858,-0.0840298,0.00161534,0.0142688,0.0495045,0.000884569,0.143381,0.0350964
1413393227155760384,-2.56529,-0.0991229,1.52161,0.516211,-0.35505,-0.736373,-0.255381,-0.384038,0.204393,-0.0720988,0.00160405,0.0142013,0.0495306,0.00229464,0.143082,0.0328464
1413393227205760512,-2.58484,-0.0886614,1.51841,0.518325,-0.355571,-0.735415,-0.253129,-0.390557,0.1998,-0.0556349,0.00155315,0.0141384,0.0495241,0.00411201,0.142597,0.0348332
1413393227255760384,-2.60286,-0.0783546,1.51517,0.521403,-0.356427,-0.734259,-0.248922,-0.391584,0.196945,-0.03506,0.0014003,0.0140784,0.0496265,0.00590113,0.140316,0.0393554
1413393227305760512,-2.62051,-0.0709134,1.51273,0.522117,-0.355723,-0.735202,-0.245629,-0.390985,0.189617,-0.0489084,0.00117863,0.0140575,0.0496915,0.00875701,0.13823,0.050567
1413393227355760384,-2.64965,-0.0615315,1.47565,0.528256,-0.343375,-0.741065,-0.232085,-0.401006,0.172545,-0.0384293,-0.000359005,0.014211,0.0501293,0.00843191,0.17259,0.0650604
1413393227405760512,-2.66938,-0.0530099,1.47255,0.528124,-0.344802,-0.740988,-0.230507,-0.393923,0.178781,-0.0343918,-0.000391745,0.0142047,0.0501874,0.00590681,0.174046,0.0605127
1413393227455760384,-2.68917,-0.04445,1.47044,0.52857,-0.346378,-0.740357,-0.229147,-0.391474,0.183562,-0.0362781,-0.000450075,0.0142057,0.0501919,0.00248359,0.171768,0.0595529
1413393227505760512,-2.70871,-0.0349407,1.46851,0.528879,-0.347196,-0.739861,-0.228796,-0.388086,0.186951,-0.0418119,-0.00049298,0.014186,0.0502236,0.000879175,0.172577,0.0580108
1413393227555760384,-2.72769,-0.025076,1.46694,0.530171,-0.348558,-0.738457,-0.228272,-0.378625,0.201229,-0.0380887,-0.000547016,0.0142686,0.0503537,-0.0027782,0.180589,0.0584348
1413393227605760512,-2.74566,-0.0147143,1.4654,0.530764,-0.351906,-0.736288,-0.228763,-0.369662,0.208773,-0.0360642,-0.000449483,0.0143296,0.05043,-0.00466666,0.188074,0.0539359
1413393227655760384,-2.76422,-0.00412072,1.46183,0.530464,-0.355236,-0.734255,-0.230836,-0.355354,0.223398,-0.0304923,-0.000549395,0.0142742,0.0504458,-0.00821921,0.184004,0.0552054
1413393227705760512,-2.78182,0.00721951,1.45895,0.529192,-0.360092,-0.732008,-0.233355,-0.336912,0.23789,-0.0346154,-0.000583574,0.0143744,0.0504562,-0.0151859,0.185459,0.0540904
1413393227755760384,-2.79862,0.0190985,1.4553,0.528284,-0.366162,-0.728798,-0.236,-0.318254,0.248063,-0.0439149,-0.000710617,0.014589,0.0505557,-0.0290734,0.185706,0.0550595
1413393227805760512,-2.81208,0.0325593,1.45922,0.525306,-0.372887,-0.725281,-0.242852,-0.302482,0.252624,-0.0618018,-0.000462871,0.014578,0.0505616,-0.0300839,0.175715,0.0515858
1413393227855760384,-2.82604,0.0457426,1.45683,0.524258,-0.380675,-0.72085,-0.246203,-0.282139,0.270754,-0.0607911,-0.000428662,0.0146249,0.0505868,-0.0308284,0.181224,0.0470349
1413393227905760512,-2.83989,0.0602591,1.45746,0.522262,-0.388769,-0.716472,-0.250539,-0.27323,0.281464,-0.0410273,-0.000503158,0.0148882,0.0506691,-0.0410486,0.18569,0.0412677
1413393227955760384,-2.85292,0.0743019,1.45279,0.520856,-0.396388,-0.711266,-0.256293,-0.249284,0.288014,-0.0431559,-0.000479633,0.0148633,0.0508001,-0.0405515,0.185518,0.0426549
1413393228005760512,-2.86475,0.0888167,1.44852,0.518339,-0.405392,-0.705863,-0.262184,-0.21993,0.302102,-0.058279,-0.000438018,0.0148513,0.050901,-0.0410559,0.184237,0.0442301
1413393228055760384,-2.87603,0.104364,1.44775,0.514876,-0.414294,-0.700372,-0.269708,-0.21851,0.30561,-0.0595724,-0.000283401,0.0150166,0.0511028,-0.0470072,0.1884,0.0449895
1413393228105760512,-2.88652,0.119945,1.44563,0.511564,-0.423463,-0.694756,-0.276217,-0.202345,0.314533,-0.0309789,-0.000246462,0.0150886,0.051261,-0.0504289,0.189505,0.0452517
1413393228155760384,-2.89602,0.136339,1.44401,0.506733,-0.432681,-0.689672,-0.283482,-0.180812,0.319328,-0.0469766,-0.000228101,0.0152109,0.0512824,-0.0540369,0.193119,0.0421446
1413393228205760512,-2.90408,0.153296,1.44286,0.502365,-0.442367,-0.684493,-0.288808,-0.174336,0.32489,-0.0285345,-0.000431312,0.0152642,0.0512335,-0.054754,0.195987,0.0291846
1413393228255760384,-2.91226,0.169714,1.44155,-0.497623,0.44931,0.680503,0.295649,-0.162041,0.330346,-0.0185588,-0.000486784,0.0152675,0.0512835,-0.0547796,0.194717,0.0274936
1413393228305760512,-2.92007,0.186301,1.44001,-0.493404,0.455488,0.676662,0.302015,-0.155899,0.335468,-0.0116679,-0.000532246,0.0152866,0.0512825,-0.0550364,0.191992,0.0266118
1413393228355760384,-2.9277,0.203056,1.43828,-0.489517,0.460583,0.6732,0.308281,-0.155037,0.34351,0.000317026,-0.000570066,0.0152908,0.0513544,-0.0560899,0.188453,0.0285659
1413393228405760512,-2.93638,0.219763,1.43543,-0.485123,0.465637,0.669642,0.315304,-0.144254,0.348718,0.00458745,-0.000374975,0.0152505,0.0515944,-0.0531611,0.187777,0.0367551
1413393228455760384,-2.94314,0.237152,1.43475,-0.482137,0.472318,0.664602,0.320568,-0.139137,0.354205,0.0145959,-0.000459175,0.0152903,0.051563,-0.0569036,0.183623,0.0367624
1413393228505760512,-2.95003,0.254963,1.43582,-0.480266,0.477631,0.65911,0.326784,-0.149155,0.351648,0.0167014,-0.000481168,0.0153331,0.0515854,-0.0580375,0.183746,0.0359564
1413393228555760384,-2.95708,0.272855,1.43744,-0.477853,0.483811,0.653815,0.331828,-0.129785,0.353266,0.0133598,-0.000466067,0.0154164,0.051667,-0.0597828,0.18627,0.0345618
1413393228605760512,-2.96408,0.290621,1.43525,-0.47363,0.489772,0.650055,0.336493,-0.136157,0.351294,0.0165204,-0.000262544,0.0154156,0.0518406,-0.0554699,0.193128,0.0376017
1413393228655760384,-2.97043,0.307928,1.43621,-0.471373,0.495575,0.645915,0.339126,-0.143316,0.34916,0.0236194,-0.000378267,0.0154808,0.0518699,-0.0613149,0.189639,0.0389465
1413393228705760512,-2.97709,0.325423,1.43713,-0.468032,0.499529,0.643667,0.342213,-0.130847,0.353954,0.0184578,-0.000404747,0.0155715,0.0518731,-0.0653247,0.188822,0.0390264
1413393228755760384,-2.98381,0.342994,1.43736,-0.465509,0.503907,0.641281,0.343712,-0.142285,0.355357,0.0260461,-0.000425292,0.0156706,0.0519248,-0.0695883,0.187292,0.0407451
1413393228805760512,-2.9904,0.361199,1.43793,-0.462963,0.508361,0.640204,0.342598,-0.148251,0.37101,0.010525,-0.000455588,0.0157146,0.0519853,-0.0698164,0.187153,0.0407729
1413393228855760384,-2.99754,0.380599,1.44195,-0.45992,0.512533,0.639959,0.340934,-0.138901,0.378252,-0.000287944,-0.000303946,0.0158007,0.0521759,-0.0674841,0.195998,0.041241
1413393228905760512,-3.00352,0.399567,1.43983,-0.456941,0.516455,0.640542,0.337912,-0.132655,0.390952,0.00407538,-0.000433215,0.0158779,0.0521318,-0.0730264,0.191438,0.0405892
1413393228955760384,-3.00992,0.419484,1.43966,-0.455671,0.518501,0.640359,0.336841,-0.133912,0.405218,-0.0076266,-0.00046063,0.0159063,0.0521425,-0.0734234,0.190974,0.0419125
1413393229005760512,-3.01629,0.44042,1.43811,-0.453761,0.518558,0.640708,0.338663,-0.118187,0.433318,-0.000531054,-0.000461754,0.0159651,0.0522005,-0.0734487,0.190465,0.0436209
1413393229055760384,-3.02237,0.462851,1.43597,-0.450983,0.515178,0.642963,0.343228,-0.128912,0.459971,-0.0249928,-0.000490514,0.0158434,0.05224,-0.0643766,0.18742,0.0435885
1413393229105760512,-3.02882,0.486158,1.43245,-0.449841,0.511692,0.643962,0.348034,-0.13134,0.469032,-0.0482554,-0.000503892,0.015843,0.0522856,-0.0610265,0.187017,0.0442955
1413393229155760384,-3.0355,0.509559,1.42653,-0.448377,0.508476,0.645176,0.352361,-0.134189,0.468573,-0.0378685,-0.000508065,0.0159111,0.0523265,-0.0617037,0.186711,0.0469242
1413393229205760512,-3.04282,0.53297,1.42355,-0.447363,0.505358,0.646415,0.355847,-0.159419,0.47066,-0.0661289,-0.000528136,0.0159055,0.0523618,-0.059083,0.18567,0.0489163
1413393229255760384,-3.05122,0.556661,1.41976,-0.446921,0.502463,0.647487,0.358542,-0.175821,0.469624,-0.0822677,-0.000557972,0.0158845,0.0524546,-0.0521544,0.183455,0.0511811
1413393229305760512,-3.06026,0.580098,1.41565,-0.447121,0.500252,0.647818,0.360783,-0.184808,0.467009,-0.0919385,-0.000561729,0.0159499,0.0524404,-0.0534211,0.183878,0.0510007
1413393229355760384,-3.07074,0.60357,1.41369,-0.448293,0.498265,0.647733,0.362225,-0.220757,0.471967,-0.106986,-0.000550196,0.0158647,0.0525288,-0.0453862,0.18453,0.0540026
1413393229405760512,-3.08203,0.627172,1.4071,-0.450549,0.497545,0.646885,0.361932,-0.239722,0.470867,-0.121835,-0.000545877,0.0158984,0.0525563,-0.0424813,0.184273,0.0544382
1413393229455760384,-3.09441,0.650517,1.40133,-0.454642,0.498447,0.644512,0.359802,-0.249457,0.464445,-0.118047,-0.000543184,0.0159833,0.0525957,-0.0433582,0.184194,0.0559822
1413393229505760512,-3.10732,0.673689,1.39523,-0.459069,0.499847,0.642332,0.356117,-0.270416,0.457825,-0.119288,-0.000558936,0.0159966,0.0526229,-0.0423659,0.18315,0.0581868
1413393229555760384,-3.1209,0.696403,1.38983,-0.46166,0.502415,0.640704,0.352062,-0.271607,0.456801,-0.104252,-0.000574946,0.0160534,0.052635,-0.0444402,0.182169,0.060673
1413393229605760512,-3.13378,0.719035,1.38555,-0.463917,0.504894,0.639905,0.346966,-0.254858,0.458742,-0.0923917,-0.000571281,0.0161041,0.0526593,-0.0441476,0.181887,0.0616154
1413393229655760384,-3.14667,0.741859,1.38261,-0.4642,0.507727,0.640245,0.341786,-0.2609,0.455159,-0.0875569,-0.000536773,0.0161671,0.052735,-0.0401153,0.182525,0.0596012
1413393229705760512,-3.16002,0.764748,1.38086,-0.462643,0.509612,0.641707,0.338333,-0.24417,0.464633,-0.0713606,-0.000305393,0.0162207,0.0526999,-0.0355376,0.189851,0.0513409
1413393229755760384,-3.17273,0.788074,1.37522,-0.461087,0.511067,0.643209,0.335398,-0.242388,0.469626,-0.0514628,-0.000174709,0.0163226,0.0528029,-0.0378856,0.193464,0.0508966
1413393229805760512,-3.18523,0.811946,1.37211,-0.458355,0.51313,0.645123,0.332303,-0.233352,0.485627,-0.0355958,-0.000110674,0.0163507,0.052845,-0.0363294,0.194538,0.0519471
1413393229855760384,-3.18809,0.835316,1.36916,-0.456215,0.511824,0.650282,0.327167,-0.224145,0.499203,-0.0169974,-0.00036357,0.0163863,0.0529748,-0.0283779,0.196426,0.0644372
1413393229905760512,-3.19778,0.860115,1.37189,-0.453532,0.512752,0.652759,0.324499,-0.220893,0.510832,8.50581e-05,-0.00028036,0.016463,0.0530474,-0.0258875,0.199372,0.0686258
1413393229955760384,-3.20866,0.886466,1.37147,-0.451666,0.51237,0.654654,0.323888,-0.22099,0.541009,0.0120133,-0.000208282,0.0164928,0.053087,-0.0225037,0.201574,0.0704054
1413393230005760512,-3.21957,0.914119,1.37244,-0.449486,0.51045,0.656644,0.325918,-0.212807,0.566992,0.0597176,-0.000123806,0.0165479,0.0531325,-0.0206154,0.203464,0.0708649
1413393230055760384,-3.23036,0.943247,1.37575,-0.448628,0.506039,0.658088,0.331025,-0.230541,0.590235,0.0610663,-6.45023e-05,0.0165733,0.0531316,-0.0162258,0.205431,0.0682535
1413393230105760512,-3.24155,0.973288,1.37875,-0.447898,0.501714,0.659486,0.335781,-0.233943,0.604807,0.0495647,-3.60882e-05,0.0166157,0.0531805,-0.0135448,0.205681,0.06845
1413393230155760384,-3.25309,1.00405,1.38158,-0.448055,0.498474,0.660057,0.339256,-0.24992,0.615948,0.0464123,-4.35195e-05,0.0167288,0.0531741,-0.0143969,0.205685,0.068892
1413393230205760512,-3.26531,1.03485,1.3816,-0.44772,0.495185,0.661361,0.341965,-0.274387,0.615154,0.0240564,-3.22888e-05,0.0166677,0.0532388,-0.00452542,0.202801,0.068395
1413393230255760384,-3.27871,1.06561,1.38471,-0.449274,0.492725,0.661121,0.343939,-0.290165,0.620063,0.00228955,-6.2588e-05,0.0166204,0.0533159,0.0016803,0.198337,0.0667345
1413393230305760512,-3.29302,1.0963,1.3898,-0.451845,0.490369,0.660721,0.344707,-0.307039,0.618343,-0.00815089,-0.000185899,0.0165316,0.0534064,0.00845806,0.189444,0.0683701
1413393230355760384,-3.28838,1.12719,1.38645,-0.457408,0.481794,0.669472,0.332355,-0.323567,0.602764,-0.040196,-0.00109655,0.0169845,0.0536414,0.0302029,0.225583,0.121588
1413393230405760512,-3.31167,1.15643,1.38225,-0.459136,0.485094,0.665311,0.333524,-0.339224,0.611443,-0.0478768,-0.000691587,0.0168922,0.053641,0.0222124,0.218815,0.103266
1413393230455760384,-3.31998,1.18761,1.38473,-0.462285,0.483618,0.666853,0.328197,-0.341351,0.618316,-0.0465063,-0.00128718,0.0169441,0.0537767,0.0297783,0.213403,0.121085
1413393230505760512,-3.34716,1.2177,1.3755,-0.46249,0.490253,0.660693,0.330514,-0.344593,0.62477,-0.0284748,-0.00089923,0.0168199,0.0537996,0.014446,0.192958,0.0948407
1413393230555760384,-3.35256,1.24885,1.36783,-0.464175,0.491663,0.661085,0.325233,-0.330911,0.620614,-0.0514377,-0.00153834,0.016925,0.0539449,0.0293136,0.193412,0.125943
1413393230605760512,-3.38602,1.28008,1.34293,-0.461791,0.502828,0.650776,0.332271,-0.319575,0.644051,-0.0408509,-0.000822553,0.0167094,0.0538764,0.00737853,0.173854,0.0753997
1413393230655760384,-3.40278,1.31265,1.33791,-0.460235,0.510832,0.645027,0.33343,-0.314855,0.650729,-0.0184211,-0.000753095,0.0167087,0.053921,0.00729388,0.170841,0.0749396
1413393230705760512,-3.41782,1.34585,1.33728,-0.457633,0.518003,0.639532,0.336518,-0.299294,0.679881,0.0327833,-0.000780182,0.0167063,0.0539952,0.00765457,0.164433,0.0717444
1413393230755760384,-3.43253,1.37946,1.34074,-0.454946,0.525959,0.63304,0.340076,-0.274802,0.685475,0.0442751,-0.000735281,0.0166808,0.0540461,0.00832723,0.160972,0.0676678
1413393230805760512,-3.44572,1.4134,1.34397,-0.451838,0.533736,0.626623,0.343965,-0.262634,0.69764,0.059298,-0.0007098,0.0167134,0.0540833,0.00744088,0.159945,0.0668609
1413393230855760384,-3.45807,1.44819,1.34737,-0.447095,0.541175,0.620504,0.349588,-0.229669,0.718388,0.0694556,-0.000731933,0.0167072,0.0541503,0.00730755,0.155393,0.0669212
1413393230905760512,-3.46915,1.48378,1.35138,-0.441494,0.548164,0.614349,0.356615,-0.214962,0.731815,0.0964975,-0.000736693,0.0166243,0.0542266,0.0120994,0.1494,0.0666897
1413393230955760384,-3.47938,1.52027,1.3563,-0.434194,0.553734,0.609556,0.365097,-0.196804,0.741862,0.110007,-0.000730196,0.0166115,0.0542715,0.0118069,0.146968,0.0667237
1413393231005760512,-3.48886,1.55772,1.36191,-0.42617,0.558112,0.605658,0.374259,-0.181632,0.751346,0.122746,-0.000707957,0.0166293,0.0543082,0.0115591,0.146427,0.0669559
1413393231055760384,-3.49801,1.59564,1.36764,-0.418125,0.561169,0.602872,0.383153,-0.184203,0.76817,0.111776,-0.000685513,0.0166335,0.0543568,0.0099266,0.145347,0.067187
1413393231105760512,-3.50766,1.63405,1.37342,-0.411764,0.563342,0.600109,0.391108,-0.205911,0.769086,0.109942,-0.000669358,0.0166365,0.0544093,0.00979202,0.143858,0.0677609
1413393231155760384,-3.51815,1.67276,1.37968,-0.406345,0.565283,0.597713,0.397591,-0.217974,0.773183,0.122975,-0.000643016,0.0166454,0.0544437,0.0113287,0.14361,0.0691849
1413393231205760512,-3.53001,1.71149,1.38498,-0.402383,0.568075,0.595138,0.401486,-0.235506,0.780717,0.121497,-0.000638011,0.0166112,0.0545081,0.0158449,0.139902,0.0699993
1413393231255760384,-3.54323,1.75046,1.39294,-0.398781,0.569841,0.59322,0.405395,-0.272182,0.780314,0.114851,-0.000642745,0.0165324,0.0545625,0.0213798,0.135399,0.0692546
1413393231305760512,-3.55786,1.7892,1.39955,-0.397895,0.572455,0.590093,0.407142,-0.283274,0.772754,0.0689831,-0.000629654,0.0164926,0.0546042,0.0245596,0.131355,0.0669465
1413393231355760384,-3.57396,1.82799,1.40371,-0.398178,0.575887,0.586104,0.407789,-0.294167,0.774436,0.0200226,-0.000544856,0.0164915,0.0546335,0.0232293,0.126205,0.0609957
1413393231405760512,-3.59018,1.86739,1.40385,-0.400413,0.578942,0.581858,0.407355,-0.309226,0.781645,-0.0177019,-0.000494486,0.0164737,0.0546683,0.0222451,0.123224,0.0586541
1413393231455760384,-3.60558,1.90653,1.40167,-0.405167,0.581167,0.576545,0.407039,-0.30148,0.783174,-0.0495492,-0.000447717,0.0164713,0.0547034,0.0207112,0.125242,0.055956
1413393231505760512,-3.6206,1.94559,1.3979,-0.411944,0.582068,0.570381,0.407633,-0.307166,0.772957,-0.0935446,-0.000420442,0.0164904,0.0547524,0.0194394,0.127308,0.0562372
1413393231555760384,-3.63606,1.98426,1.39134,-0.420177,0.580735,0.563995,0.41001,-0.306899,0.763905,-0.142412,-0.000407279,0.0164421,0.0547903,0.0226173,0.125665,0.0572486
1413393231605760512,-3.65082,2.02181,1.38191,-0.428004,0.579328,0.557638,0.412591,-0.279018,0.738757,-0.172985,-0.000437229,0.0164207,0.0548426,0.0192979,0.123815,0.0530713
1413393231655760384,-3.66465,2.05802,1.37247,-0.432923,0.578965,0.5527,0.414608,-0.273395,0.707815,-0.189089,-0.000423744,0.0163967,0.0548911,0.017138,0.124421,0.0521999
1413393231705760512,-3.67739,2.09253,1.36212,-0.434198,0.579411,0.54987,0.416411,-0.24612,0.675567,-0.189537,-0.000423358,0.0163949,0.0549222,0.012088,0.124883,0.0518051
1413393231755760384,-3.68911,2.12518,1.35118,-0.432649,0.582192,0.547483,0.41729,-0.214143,0.642703,-0.177274,-0.000457107,0.0163623,0.0549634,0.00926737,0.122043,0.0501147
1413393231805760512,-3.6998,2.15622,1.34342,-0.430203,0.586421,0.545341,0.416702,-0.210926,0.602711,-0.169543,-0.000471632,0.0163329,0.0550143,0.00720296,0.120841,0.0471416
1413393231855760384,-3.70936,2.18554,1.33609,-0.428217,0.592461,0.5422,0.414294,-0.177889,0.57,-0.157549,-0.00049558,0.016347,0.0550562,0.0031516,0.120818,0.0460805
1413393231905760512,-3.71736,2.21367,1.32894,-0.424056,0.600578,0.538888,0.411197,-0.141051,0.548565,-0.132199,-0.000525593,0.0163461,0.0551047,-0.000782272,0.121111,0.0444294
1413393231955760384,-3.72363,2.24078,1.32255,-0.420586,0.6083,0.534596,0.409005,-0.115657,0.541195,-0.116845,-0.000534023,0.0163572,0.0551591,-0.00510941,0.121652,0.0435868
1413393232005760512,-3.72804,2.26715,1.31743,-0.416762,0.615783,0.529569,0.408263,-0.0688485,0.517439,-0.108285,-0.000547528,0.0163626,0.0552508,-0.00740143,0.121781,0.0436171
1413393232055760384,-3.73018,2.29312,1.31321,-0.41067,0.622076,0.525586,0.410038,-0.0254569,0.518886,-0.0707462,-0.000551256,0.0163856,0.0552972,-0.00955942,0.123259,0.0456691
1413393232105760512,-3.73029,2.3186,1.31003,-0.404497,0.627834,0.521015,0.413219,0.00641935,0.498875,-0.046941,-0.000535442,0.0164348,0.0553135,-0.0135063,0.125674,0.047071
1413393232155760384,-3.72837,2.34349,1.30558,-0.397964,0.633478,0.515961,0.417271,0.047357,0.486069,-0.0507103,-0.000509874,0.0164626,0.0553338,-0.0165527,0.129319,0.0474898
1413393232205760512,-3.72521,2.36792,1.3034,-0.390926,0.637133,0.510842,0.424592,0.0776002,0.487133,-0.0438552,-0.000520545,0.016498,0.05541,-0.0197158,0.129449,0.049379
1413393232255760384,-3.72073,2.39209,1.30029,-0.384565,0.641501,0.504882,0.430907,0.100004,0.481888,-0.0769057,-0.000522013,0.0164801,0.0554735,-0.0227633,0.128921,0.0502333
1413393232305760512,-3.71471,2.41595,1.29575,-0.378574,0.645998,0.498428,0.436964,0.131209,0.474979,-0.108087,-0.000521056,0.0164904,0.0554963,-0.0252877,0.129059,0.0491095
1413393232355760384,-3.70755,2.43965,1.28963,-0.373568,0.651857,0.490647,0.441356,0.148014,0.474132,-0.142286,-0.000540365,0.0165092,0.0555947,-0.0275557,0.129125,0.0484308
1413393232405760512,-3.69927,2.46311,1.28192,-0.367552,0.657968,0.484138,0.444515,0.174418,0.470425,-0.156975,-0.00054633,0.0165017,0.0556394,-0.0295405,0.129032,0.0479719
1413393232455760384,-3.68986,2.48632,1.27288,-0.361693,0.663744,0.477251,0.448168,0.197028,0.463098,-0.195337,-0.000575523,0.0165202,0.0556816,-0.0320963,0.128561,0.0468339
1413393232505760512,-3.67965,2.50959,1.26262,-0.356529,0.669674,0.470185,0.450943,0.214513,0.468317,-0.227784,-0.000582176,0.0165292,0.055671,-0.0352975,0.127589,0.0447873
1413393232555760384,-3.66789,2.53338,1.25263,-0.352132,0.674585,0.464169,0.453306,0.232446,0.473802,-0.261,-0.000455944,0.0166776,0.055716,-0.0387657,0.134677,0.0482705
1413393232605760512,-3.65612,2.55693,1.23872,-0.348476,0.677941,0.459634,0.455738,0.243552,0.46954,-0.289929,-0.000464759,0.0166614,0.0557699,-0.0376468,0.133168,0.0489225
1413393232655760384,-3.64334,2.58031,1.22506,-0.346134,0.681209,0.454717,0.457578,0.273791,0.467357,-0.266326,-0.000468637,0.0166645,0.0557687,-0.0391244,0.133399,0.0478946
1413393232705760512,-3.62979,2.60347,1.21119,-0.344485,0.683231,0.450641,0.459835,0.282256,0.470999,-0.255816,-0.000621784,0.0166227,0.0557648,-0.0411515,0.126984,0.0433119
1413393232755760384,-3.6152,2.62628,1.19735,-0.341861,0.684173,0.448777,0.462211,0.305734,0.462937,-0.230196,-0.00083577,0.0165839,0.0557587,-0.045065,0.119738,0.0400617
1413393232805760512,-3.59951,2.64901,1.18446,-0.339659,0.685281,0.447218,0.4637,0.337927,0.467894,-0.223556,-0.00101057,0.0166406,0.0557559,-0.0511384,0.113931,0.0417449
1413393232855760384,-3.58236,2.67264,1.17396,-0.338637,0.685852,0.445637,0.465124,0.345804,0.476426,-0.212035,-0.00105652,0.0166725,0.0557456,-0.0512446,0.113979,0.0417528
1413393232905760512,-3.56451,2.69603,1.16369,-0.336332,0.686674,0.445907,0.465323,0.36837,0.467909,-0.198656,-0.001057,0.0166724,0.0557457,-0.0517825,0.113558,0.0418299
1413393232955760384,-3.54555,2.71944,1.15523,-0.332405,0.685834,0.447731,0.467627,0.389193,0.464632,-0.151706,-0.0011022,0.0166841,0.0557279,-0.0517786,0.113616,0.0419886
1413393233005760512,-3.52583,2.74318,1.14832,-0.329188,0.685378,0.449613,0.468765,0.397946,0.477579,-0.117869,-0.00112303,0.0166921,0.0557343,-0.0522483,0.114061,0.0425337
1413393233055760384,-3.50551,2.7675,1.14408,-0.325923,0.684453,0.452092,0.470012,0.407984,0.486369,-0.0774509,-0.00114996,0.0167483,0.0558077,-0.0515081,0.116132,0.0435715
1413393233105760512,-3.48472,2.7932,1.14306,-0.322536,0.684829,0.454253,0.469717,0.420533,0.484027,-0.0428762,-0.000814297,0.0168783,0.0559472,-0.0480465,0.127575,0.0494582
1413393233155760384,-3.4636,2.81866,1.14208,-0.32091,0.684377,0.455699,0.470089,0.419886,0.501049,0.00221962,-0.000675617,0.0170355,0.0560538,-0.0497303,0.132293,0.0523796
1413393233205760512,-3.44218,2.84475,1.14423,-0.319497,0.683334,0.456832,0.471466,0.426144,0.521212,0.0572637,-0.000573653,0.0172394,0.0561763,-0.0518633,0.136454,0.0553541
1413393233255760384,-3.42027,2.87082,1.14814,-0.318691,0.681726,0.455435,0.475673,0.442883,0.515072,0.0968882,-0.000557345,0.0171818,0.056291,-0.0484056,0.136378,0.0561539
1413393233305760512,-3.39871,2.89707,1.15368,-0.31768,0.680143,0.453535,0.480407,0.43689,0.530798,0.1417,-0.000539143,0.0171643,0.05626,-0.0528199,0.134038,0.0562381
1413393233355760384,-3.37754,2.92367,1.16093,-0.317286,0.678525,0.44967,0.48655,0.441116,0.531888,0.195766,-0.000530777,0.0172067,0.0562255,-0.0625824,0.130375,0.0572636
1413393233405760512,-3.35715,2.9506,1.16991,-0.317051,0.677968,0.443697,0.492922,0.433377,0.521409,0.207234,-0.000424159,0.0173853,0.0559644,-0.0819014,0.13101,0.0518527
1413393233455760384,-3.33599,2.97679,1.18109,-0.318279,0.67977,0.435042,0.497343,0.421169,0.521651,0.258089,-0.000405241,0.0176304,0.0559499,-0.0934271,0.134969,0.0506052
1413393233505760512,-3.31562,3.00232,1.19655,-0.314689,0.681279,0.429392,0.502446,0.410474,0.494087,0.299857,-0.00049531,0.0176533,0.056209,-0.0968859,0.128836,0.0541193
1413393233555760384,-3.29412,3.02601,1.21193,-0.311607,0.685251,0.422619,0.504704,0.408401,0.47118,0.306837,-0.000574801,0.0178145,0.0564871,-0.0892465,0.126028,0.0619088
1413393233605760512,-3.27324,3.04932,1.22921,-0.304309,0.68959,0.417799,0.507254,0.406404,0.472421,0.353714,-0.000618591,0.0178712,0.0567874,-0.0784342,0.117441,0.0708276
1413393233655760384,-3.25334,3.07202,1.24699,-0.296545,0.695706,0.412058,0.508196,0.398587,0.462934,0.387763,-0.00063131,0.0180036,0.0567909,-0.0788949,0.117371,0.071715
1413393233705760512,-3.23399,3.09449,1.26663,-0.288123,0.702755,0.405831,0.508352,0.384938,0.454825,0.421832,-0.000631321,0.0180036,0.0567909,-0.0799311,0.117772,0.0724584
1413393233755760384,-3.21492,3.11736,1.2896,-0.279832,0.706634,0.399255,0.512796,0.373675,0.458918,0.483039,-0.000631324,0.0180037,0.056791,-0.0809373,0.118135,0.0732382
1413393233805760512,-3.19698,3.13994,1.31411,-0.275051,0.710083,0.391391,0.516664,0.349516,0.444441,0.504572,-0.000631326,0.0180037,0.056791,-0.081903,0.118421,0.0740637
1413393233855760384,-3.18003,3.1625,1.33918,-0.271485,0.709772,0.383276,0.524995,0.323289,0.454089,0.492961,-0.000631328,0.0180038,0.0567911,-0.0828219,0.118622,0.0749356
1413393233905760512,-3.16427,3.18492,1.36396,-0.271455,0.711789,0.374373,0.528691,0.306035,0.44568,0.491418,-0.000631332,0.0180039,0.0567911,-0.0836923,0.118741,0.0758531
1413393233955760384,-3.14953,3.20697,1.38918,-0.268966,0.713187,0.366211,0.533772,0.298848,0.421581,0.484535,-0.000647784,0.0180299,0.0569784,-0.0807879,0.113396,0.0794035
1413393234005760512,-3.1358,3.22828,1.41312,-0.26717,0.717373,0.357845,0.534737,0.270998,0.416038,0.490635,-0.000648598,0.0180351,0.0571551,-0.0762896,0.108547,0.0823446
1413393234055760384,-3.12403,3.24948,1.43052,-0.265506,0.722632,0.348179,0.534865,0.256413,0.393823,0.480761,-0.000710201,0.0179745,0.0570402,-0.0696078,0.103056,0.0802443
1413393234105760512,-3.11225,3.26881,1.45029,-0.261605,0.72859,0.339805,0.53409,0.251044,0.364551,0.468442,-0.000743278,0.0179331,0.0570659,-0.0656989,0.0992974,0.0798991
1413393234155760384,-3.10114,3.28672,1.46481,-0.257351,0.734482,0.33205,0.532964,0.240084,0.346176,0.427179,-0.000820229,0.0178732,0.0570105,-0.0609333,0.0950681,0.0782694
1413393234205760512,-3.08989,3.30343,1.49127,-0.255275,0.738894,0.324332,0.532616,0.245274,0.321397,0.402723,-0.000770756,0.0178958,0.0571928,-0.0590574,0.0932977,0.0777971
1413393234255760384,-3.07707,3.3191,1.51057,-0.25735,0.740523,0.313199,0.536007,0.260357,0.290987,0.367933,-0.00071633,0.0179694,0.0572959,-0.0584611,0.0926006,0.0772121
1413393234305760512,-3.06097,3.33685,1.51976,-0.262559,0.740896,0.299411,0.540822,0.26818,0.26207,0.339201,-0.000646521,0.0180162,0.0572911,-0.0580766,0.0887998,0.074363
1413393234355760384,-3.03419,3.36682,1.46872,-0.267659,0.740775,0.284494,0.546511,0.271886,0.224556,0.315832,-0.000469358,0.0180486,0.0572931,-0.0620566,0.0751989,0.0599421
1413393234405760512,-3.04769,3.38799,1.5246,-0.258736,0.742958,0.256379,0.56155,0.281236,0.156351,0.260064,0.000920744,0.0182547,0.0572399,-0.0794229,-0.0255467,0.00754934
1413393234455760384,-3.01776,3.41304,1.45913,-0.264725,0.742922,0.246792,0.5631,0.269423,0.120865,0.223342,0.000758599,0.0180806,0.0572864,-0.0717711,-0.00228853,0.00604163
1413393234505760512,-3.00374,3.41663,1.47129,-0.263745,0.743747,0.237849,0.566311,0.268473,0.0392266,0.183744,0.000787891,0.017868,0.0573971,-0.0597511,-0.00536544,0.00476871
1413393234555760384,-2.9901,3.41671,1.4832,-0.257895,0.744968,0.230471,0.570435,0.273899,-0.0571429,0.222379,0.00083811,0.0175731,0.05745,-0.0375906,-0.00972686,0.00132415
1413393234605760512,-2.97631,3.41197,1.49349,-0.244861,0.745814,0.227772,0.57613,0.284545,-0.128811,0.22038,0.000823402,0.0174136,0.0573713,-0.0267941,-0.0113871,-0.000881978
1413393234655760384,-2.96175,3.40337,1.50603,-0.224663,0.74581,0.229492,0.583634,0.270662,-0.210753,0.291052,0.000767007,0.0174968,0.0573258,-0.0270847,-0.00715434,-0.00314319
1413393234705760512,-2.9495,3.39044,1.52402,-0.201208,0.747285,0.23308,0.588858,0.227254,-0.286521,0.440834,0.00076728,0.0176352,0.0573861,-0.0315419,-0.00392052,-0.00242671
1413393234755760384,-2.93949,3.37475,1.54624,-0.180847,0.750823,0.234234,0.590503,0.184818,-0.321334,0.464725,0.000746581,0.0177394,0.0574147,-0.0339149,-0.000305316,-0.00297415
1413393234805760512,-2.93114,3.35792,1.56985,-0.160618,0.756194,0.235125,0.589143,0.15003,-0.331326,0.461165,0.00075936,0.0178169,0.0574857,-0.0351415,0.00107679,-0.00193955
1413393234855760384,-2.92443,3.3413,1.59161,-0.146099,0.762966,0.23174,0.585521,0.12492,-0.333508,0.388432,0.000748838,0.0178297,0.0575122,-0.0350045,-0.00102534,-0.000691988
1413393234905760512,-2.91888,3.32537,1.60992,-0.138109,0.769806,0.224011,0.581502,0.105954,-0.326359,0.300067,0.000756763,0.0179008,0.0575889,-0.0381764,-0.00564052,0.00172428
1413393234955760384,-2.91412,3.31117,1.62345,-0.13268,0.775521,0.214194,0.578865,0.0863272,-0.31125,0.192649,0.000778491,0.0178774,0.0576123,-0.0362491,-0.0110454,0.0017186
1413393235005760512,-2.91002,3.29744,1.62998,-0.131143,0.781284,0.201224,0.576112,0.0734779,-0.300415,0.0880869,0.000778077,0.0178627,0.057596,-0.0348328,-0.0138421,0.000603299
1413393235055760384,-2.90626,3.28274,1.63202,-0.13085,0.785933,0.187296,0.57455,0.0721161,-0.295993,-0.0137825,0.000782225,0.0178776,0.0576556,-0.0329182,-0.0135408,0.000114826
1413393235105760512,-2.90263,3.26856,1.62859,-0.129228,0.789809,0.173569,0.573913,0.0722566,-0.298292,-0.108263,0.000785907,0.0178564,0.0576822,-0.030313,-0.0144739,-0.000394751
1413393235155760384,-2.89899,3.25299,1.62179,-0.125243,0.793549,0.161564,0.573141,0.0809649,-0.304521,-0.184086,0.000798197,0.0178766,0.0577808,-0.026183,-0.0163329,0.00130554
1413393235205760512,-2.8948,3.23695,1.61083,-0.116666,0.796088,0.152704,0.57386,0.0811446,-0.308296,-0.202989,0.000787953,0.0179088,0.0577652,-0.0241407,-0.00807552,-0.00224949
1413393235255760384,-2.89067,3.21936,1.60013,-0.104972,0.799143,0.146339,0.57353,0.0809048,-0.314976,-0.221059,0.000781849,0.0179343,0.057846,-0.0233887,-0.00555047,-0.000773357
1413393235305760512,-2.88651,3.20212,1.58974,-0.0912942,0.801908,0.141919,0.573122,0.0807554,-0.308863,-0.199206,0.00077046,0.0179714,0.0578721,-0.0208913,-0.000839296,-0.00145144
1413393235355760384,-2.88252,3.18572,1.5793,-0.0802815,0.805374,0.13759,0.570961,0.0791043,-0.289464,-0.190805,0.000759164,0.0179761,0.0578697,-0.0185289,0.00711458,-0.00477293
1413393235405760512,-2.87839,3.17127,1.57017,-0.0698463,0.809004,0.134854,0.567846,0.0795381,-0.260748,-0.170788,0.000735421,0.0179614,0.0578774,-0.0187927,0.0129684,-0.00750045
1413393235455760384,-2.87387,3.15932,1.56138,-0.0623244,0.811715,0.131677,0.565594,0.0962694,-0.229684,-0.153361,0.000671649,0.0179611,0.0578865,-0.0203312,0.0148916,-0.0105555
1413393235505760512,-2.86774,3.14819,1.55184,-0.0557499,0.814452,0.131208,0.562445,0.114359,-0.195672,-0.121355,0.00056801,0.0179647,0.0579043,-0.0215237,0.019747,-0.0140626
1413393235555760384,-2.84726,3.1328,1.54706,-0.0581738,0.811368,0.148393,0.562385,0.141952,-0.148762,-0.0788003,-0.000662668,0.0180189,0.0581897,-0.0165394,0.0327916,-0.00262678
1413393235605760512,-2.83099,3.11217,1.54993,-0.0506633,0.808516,0.157096,0.56485,0.145767,-0.101301,-0.097088,-0.0011172,0.0180508,0.0582952,-0.0109764,0.0449611,0.0108622
1413393235655760384,-2.82251,3.10645,1.54748,-0.0419752,0.806472,0.156816,0.568551,0.150049,-0.0435882,-0.0776327,-0.00112706,0.0180787,0.0583005,-0.0115822,0.0467526,0.0131963
1413393235705760512,-2.81629,3.10665,1.54543,-0.0352828,0.804107,0.153772,0.573168,0.139252,0.0264499,-0.0813378,-0.00100976,0.0180977,0.0582978,-0.0135234,0.0442628,0.0150271
1413393235755760384,-2.81539,3.11926,1.54104,-0.0297948,0.804169,0.143266,0.576107,0.129449,0.0881999,-0.0737042,-0.000558484,0.0180787,0.0581869,-0.0158756,0.0449517,0.01459
1413393235805760512,-2.79177,3.10903,1.53469,-0.0489509,0.800515,0.159553,0.575607,0.103352,0.157332,-0.0681478,-0.00211754,0.0181836,0.0585458,-0.0143697,0.0585797,0.0263102
1413393235855760384,-2.77674,3.10686,1.53052,-0.05809,0.801813,0.150942,0.575272,0.0896748,0.200379,-0.0732892,-0.00205656,0.018241,0.0584496,-0.00380635,0.0824854,0.062978
1413393235905760512,-2.78062,3.12447,1.51649,-0.0645117,0.803492,0.131836,0.576939,0.0730075,0.223254,-0.0762482,-0.00154207,0.0182212,0.0582997,-0.00564971,0.09554,0.066258
1413393235955760384,-2.77438,3.13502,1.51503,-0.0769429,0.803137,0.124013,0.577643,0.0617565,0.242686,-0.0646377,-0.00178049,0.0182392,0.0583938,-0.00394671,0.086125,0.0703757
1413393236005760512,-2.76939,3.14779,1.51444,-0.0829882,0.802402,0.114743,0.57974,0.0488218,0.23533,-0.0387122,-0.00180976,0.0182354,0.0584402,-0.0049145,0.0825249,0.0695851
1413393236055760384,-2.75553,3.15211,1.51172,-0.0936872,0.801739,0.111246,0.579708,0.0467736,0.226325,-0.0354541,-0.0023562,0.0182762,0.058588,-0.00296356,0.0910024,0.0785639
1413393236105760512,-2.75097,3.1633,1.50912,-0.0978184,0.801792,0.103679,0.580354,0.068362,0.214437,0.00672918,-0.00257433,0.0182224,0.0586015,-0.00706088,0.0993303,0.0635685
1413393236155760384,-2.7432,3.1835,1.52048,-0.098471,0.802299,0.0954858,0.58095,0.0409639,0.164341,0.0165699,-0.00270529,0.0181617,0.0587107,-0.00633757,0.111425,0.0567568
1413393236205760512,-2.75556,3.19678,1.51587,-0.0820208,0.805428,0.0793966,0.581596,0.0301508,0.132063,0.0497938,-0.00199569,0.0183013,0.0586327,-0.00562591,0.0762609,0.0547375
1413393236255760384,-2.74952,3.19531,1.52295,-0.0742861,0.807491,0.0786104,0.57988,0.000687163,0.119063,0.087394,-0.00229902,0.018294,0.0587323,-0.00694232,0.0854872,0.0598425
1413393236305760512,-2.74895,3.19915,1.52724,-0.0609465,0.809436,0.0744051,0.579279,0.012313,0.0881329,0.0738003,-0.00232933,0.018287,0.0587604,-0.0078713,0.0887219,0.0592284
1413393236355760384,-2.7479,3.20356,1.53122,-0.0491797,0.810828,0.0682848,0.579203,0.0145514,0.0897422,0.109479,-0.00237418,0.0183246,0.058811,-0.0118387,0.0856663,0.0641768
1413393236405760512,-2.74731,3.20907,1.53671,-0.0406858,0.812655,0.060357,0.578182,0.0179187,0.10519,0.109841,-0.0023686,0.0183653,0.0588598,-0.0122344,0.0802049,0.0685203
1413393236455760384,-2.74635,3.21447,1.54195,-0.0334756,0.813836,0.0514576,0.577844,0.0140529,0.101018,0.0980022,-0.00237577,0.0184198,0.0589005,-0.0152242,0.0724833,0.0786623
1413393236505760512,-2.74524,3.21958,1.54715,-0.0280233,0.816705,0.0409083,0.574921,0.021572,0.0993352,0.0997225,-0.00238306,0.018425,0.0589143,-0.0174193,0.0729569,0.0792114
1413393236555760384,-2.74375,3.22502,1.55254,-0.0220087,0.820277,0.0310659,0.570698,0.0341933,0.106313,0.107694,-0.00239291,0.0184724,0.0589438,-0.0232092,0.0692824,0.0838521
1413393236605760512,-2.74171,3.23069,1.55814,-0.0164622,0.825245,0.0206459,0.564157,0.0504143,0.112414,0.110576,-0.00238374,0.0184978,0.0589725,-0.0240102,0.0682732,0.0860909
1413393236655760384,-2.73836,3.23599,1.56196,-0.0119559,0.829399,0.0103808,0.558433,0.0795292,0.114566,0.0602302,-0.00238613,0.0185024,0.0590008,-0.0237916,0.0705926,0.0867152
1413393236705760512,-2.73359,3.2415,1.5635,-0.00927895,0.831405,0.00130593,0.555588,0.0902272,0.119948,0.0058388,-0.00238878,0.0185178,0.0590486,-0.0258065,0.0707701,0.0880979
1413393236755760384,-2.70896,3.21232,1.55725,-0.0255728,0.831194,0.0118603,0.555267,0.101612,0.112812,-0.0332443,-0.00382346,0.0183591,0.0595323,-0.0340119,0.117356,0.0649292
1413393236805760512,-2.7038,3.21841,1.55309,-0.0265133,0.830343,0.000260135,0.556621,0.126877,0.108916,-0.0794365,-0.00377121,0.0183703,0.0595736,-0.0381376,0.115726,0.0648954
1413393236855760384,-2.69676,3.22475,1.55115,-0.0253351,0.828783,-0.00830594,0.558935,0.161013,0.0967847,-0.0712417,-0.00373169,0.0184008,0.0595955,-0.0381542,0.115347,0.0674456
1413393236905760512,-2.68849,3.23004,1.54889,-0.0227774,0.826988,-0.0150083,0.561558,0.184749,0.0741768,-0.00288402,-0.0036722,0.0184238,0.0596277,-0.0358277,0.111919,0.0682645
1413393236955760384,-2.67892,3.23383,1.5497,-0.0186964,0.82388,-0.0181142,0.566166,0.214472,0.0433865,0.0380245,-0.00365422,0.0184392,0.0596436,-0.034245,0.108824,0.0715048
1413393237005760512,-2.66756,3.23615,1.55456,-0.0134638,0.820942,-0.0182973,0.570559,0.231101,0.0291506,0.127016,-0.00362768,0.0184625,0.0596889,-0.0324817,0.107636,0.0754239
1413393237055760384,-2.71859,3.28441,1.5482,0.0114513,0.80943,-0.0167967,0.586864,0.219435,0.0127016,0.199494,-0.00255479,0.0193082,0.0609101,-0.112102,-0.223054,-0.154718
1413393237105760512,-2.7034,3.28279,1.56168,0.0173402,0.80799,-0.0134251,0.588788,0.225117,0.00768809,0.272537,-0.00263574,0.0192523,0.0608652,-0.110629,-0.200106,-0.138762
1413393237155760384,-2.69181,3.2836,1.5747,0.0255898,0.805155,-0.00846243,0.592452,0.231998,0.0154398,0.256147,-0.00263641,0.0192619,0.0608775,-0.112022,-0.200971,-0.138967
1413393237205760512,-2.6802,3.28486,1.58671,0.0333788,0.803205,-0.00295579,0.59476,0.229721,0.0287206,0.211762,-0.00263321,0.0192658,0.060903,-0.114119,-0.201249,-0.138619
1413393237255760384,-2.66822,3.2863,1.59517,0.038643,0.801831,0.000999116,0.596299,0.238848,0.0338533,0.143215,-0.00264724,0.0192768,0.0609304,-0.117432,-0.199603,-0.140804
1413393237305760512,-2.65631,3.28927,1.60074,0.0428787,0.802048,0.00443319,0.595702,0.228219,0.0642108,0.0873784,-0.00263988,0.0192859,0.0609482,-0.119067,-0.201635,-0.13884
1413393237355760384,-2.64502,3.29376,1.6035,0.0455309,0.802377,0.00755452,0.59503,0.216121,0.0982919,0.0152915,-0.00262172,0.0192913,0.0609756,-0.120834,-0.200348,-0.136595
1413393237405760512,-2.63421,3.29988,1.60319,0.046541,0.801711,0.00918922,0.595827,0.209384,0.118772,-0.0547569,-0.00262599,0.0193151,0.0610041,-0.124053,-0.201524,-0.130107
1413393237455760384,-2.62381,3.30733,1.60034,0.044036,0.801375,0.00898938,0.596472,0.203746,0.161622,-0.0870964,-0.00261771,0.0193265,0.0610115,-0.127529,-0.205517,-0.12058
1413393237505760512,-2.61318,3.3167,1.59602,0.0375342,0.801073,0.00663734,0.597352,0.202955,0.189674,-0.105035,-0.00262549,0.0193579,0.0610193,-0.131223,-0.210078,-0.110275
1413393237555760384,-2.60289,3.32704,1.59055,0.0286553,0.801553,0.00255963,0.597232,0.190983,0.207512,-0.0974033,-0.0026247,0.0193653,0.0610325,-0.130591,-0.210931,-0.105853
1413393237605760512,-2.59299,3.33773,1.58567,0.0194623,0.801395,-0.0018298,0.597816,0.184476,0.213589,-0.0950212,-0.00262343,0.0193708,0.0610268,-0.130668,-0.211596,-0.105881
1413393237655760384,-2.58337,3.34844,1.58112,0.0104324,0.802903,-0.00626178,0.595986,0.177881,0.206677,-0.0820784,-0.00260208,0.0193628,0.0610505,-0.12865,-0.207191,-0.107427
1413393237705760512,-2.57431,3.35853,1.57635,0.00304329,0.803535,-0.00958729,0.595172,0.175134,0.190528,-0.0903869,-0.00259517,0.0193797,0.0610737,-0.131462,-0.20926,-0.109268
1413393237755760384,-2.56512,3.36801,1.57303,-0.00193685,0.804641,-0.0111246,0.593655,0.167014,0.168075,-0.0777454,-0.00258034,0.0193896,0.0611116,-0.131514,-0.207808,-0.107498
1413393237805760512,-2.55643,3.37614,1.56963,-0.00497468,0.805621,-0.011672,0.592296,0.17252,0.141562,-0.0521716,-0.00255688,0.0193952,0.0611379,-0.132493,-0.206047,-0.108842
1413393237855760384,-2.54783,3.38276,1.5664,-0.00494702,0.807225,-0.0103161,0.590133,0.17857,0.11572,-0.0590012,-0.00254757,0.0194084,0.06118,-0.136291,-0.207412,-0.110826
1413393237905760512,-2.53895,3.38823,1.56444,-0.00293064,0.809232,-0.00782816,0.587429,0.175468,0.0895847,-0.0342884,-0.00253168,0.0194285,0.061227,-0.139835,-0.21003,-0.111597
1413393237955760384,-2.53039,3.39242,1.5628,-0.000542777,0.810429,-0.00573945,0.585809,0.172573,0.0615291,-0.044628,-0.00251992,0.0194372,0.0612654,-0.138659,-0.212915,-0.112898
1413393238005760512,-2.52159,3.39538,1.56001,0.00683368,0.813507,-0.000576011,0.581515,0.177141,0.0457643,-0.0469057,-0.00250211,0.0194463,0.0612916,-0.14065,-0.213019,-0.114057
1413393238055760384,-2.51215,3.39761,1.55727,0.0137769,0.815778,0.00438665,0.578184,0.198158,0.0470922,-0.028012,-0.00251458,0.0194735,0.0613324,-0.144125,-0.215517,-0.113941
1413393238105760512,-2.50198,3.39983,1.55578,0.0189819,0.818053,0.00759423,0.574779,0.216721,0.0434202,-0.0226032,-0.00252646,0.0194817,0.0613615,-0.145632,-0.217245,-0.113663
1413393238155760384,-2.49084,3.40216,1.55576,0.0242518,0.818521,0.00973996,0.573882,0.229809,0.0431158,0.00688902,-0.00252154,0.0195009,0.0613784,-0.146255,-0.218195,-0.113099
1413393238205760512,-2.47877,3.40527,1.55663,0.0284366,0.819124,0.0109887,0.572806,0.257466,0.0679362,0.0197898,-0.00253238,0.0195105,0.0614095,-0.147652,-0.219233,-0.115306
1413393238255760384,-2.46559,3.40919,1.56011,0.0315745,0.819366,0.0117341,0.57228,0.25622,0.0888377,0.0755534,-0.00252418,0.0195316,0.0614351,-0.145844,-0.216455,-0.117059
1413393238305760512,-2.4518,3.41406,1.56482,0.0343494,0.819768,0.0107695,0.571563,0.286959,0.105666,0.140887,-0.00251586,0.0195316,0.0614447,-0.145262,-0.216997,-0.120088
1413393238355760384,-2.43653,3.42061,1.57344,0.0352743,0.82026,0.00937772,0.570825,0.318645,0.142918,0.173883,-0.0025248,0.0195465,0.0614819,-0.144754,-0.216904,-0.116143
1413393238405760512,-2.41949,3.42817,1.58443,0.0354654,0.819837,0.00745873,0.571449,0.358946,0.1659,0.241214,-0.00252224,0.0195483,0.0615109,-0.146,-0.216707,-0.120471
1413393238455760384,-2.4012,3.43698,1.59764,0.0326562,0.818542,0.003444,0.573507,0.376539,0.188094,0.268951,-0.00251277,0.0195737,0.0615377,-0.14747,-0.21643,-0.12717
1413393238505760512,-2.38191,3.44678,1.61063,0.0265571,0.817556,-0.00284688,0.575229,0.39298,0.201649,0.237632,-0.0025089,0.0196189,0.0615775,-0.148517,-0.215428,-0.128114
1413393238555760384,-2.3621,3.45699,1.62116,0.0187811,0.815215,-0.0102385,0.578764,0.397957,0.206232,0.183072,-0.00249141,0.0196218,0.0616127,-0.145601,-0.215294,-0.130971
1413393238605760512,-2.34205,3.46716,1.6288,0.0101499,0.812906,-0.0178588,0.582033,0.416961,0.192046,0.125595,-0.00249441,0.019635,0.0616107,-0.145108,-0.216396,-0.132081
1413393238655760384,-2.32073,3.47623,1.63403,0.00220826,0.811453,-0.0251187,0.583874,0.429211,0.169282,0.0813267,-0.00250061,0.0196177,0.0616321,-0.138214,-0.216571,-0.135249
1413393238705760512,-2.29922,3.48429,1.63665,-0.00372378,0.810216,-0.0306291,0.585319,0.436041,0.142371,0.0151777,-0.0024766,0.0196258,0.0616448,-0.139889,-0.215993,-0.133447
1413393238755760384,-2.27784,3.49066,1.6363,-0.00806465,0.809123,-0.0351277,0.586533,0.441869,0.101986,-0.0231459,-0.00246514,0.0196483,0.0616927,-0.141515,-0.216889,-0.134538
1413393238805760512,-2.25585,3.49481,1.63476,-0.00900017,0.808141,-0.0370054,0.587757,0.44663,0.0638555,-0.0345476,-0.00245094,0.0196602,0.0617324,-0.14044,-0.217856,-0.139006
1413393238855760384,-2.23366,3.49669,1.63317,-0.00670234,0.807859,-0.0365345,0.588205,0.445851,0.0154509,-0.0223483,-0.00242488,0.0196614,0.061756,-0.140136,-0.217298,-0.141724
1413393238905760512,-2.21147,3.49629,1.63192,-0.00157144,0.80779,-0.0342127,0.588474,0.454656,-0.0259241,-0.00636729,-0.00242635,0.0196899,0.0618039,-0.142557,-0.218667,-0.14623
1413393238955760384,-2.18922,3.49407,1.63265,0.00692052,0.808109,-0.0290907,0.588273,0.445184,-0.0599866,0.0132038,-0.00241311,0.0196861,0.0618626,-0.144175,-0.218053,-0.152592
1413393239005760512,-2.16689,3.49049,1.63412,0.0163657,0.80792,-0.0238131,0.588584,0.442951,-0.0846945,0.0333782,-0.00240507,0.019695,0.0618794,-0.143737,-0.216236,-0.152863
1413393239055760384,-2.14461,3.48653,1.63562,0.0244906,0.808335,-0.0184045,0.587925,0.449444,-0.0688117,0.029651,-0.00239587,0.0197068,0.0618935,-0.141032,-0.217201,-0.159601
1413393239105760512,-2.12217,3.48272,1.63728,0.0312013,0.808318,-0.0144435,0.587741,0.447605,-0.0833572,0.018313,-0.00238124,0.0196968,0.0619112,-0.137956,-0.217067,-0.158686
1413393239155760384,-2.0997,3.47918,1.63869,0.036082,0.808169,-0.0118854,0.587724,0.453901,-0.0642278,0.0388737,-0.00236845,0.0197011,0.0619129,-0.136925,-0.21723,-0.160319
1413393239205760512,-2.07678,3.47652,1.64038,0.040047,0.808675,-0.00893478,0.586823,0.463547,-0.039328,0.0204293,-0.00236742,0.0197044,0.0619329,-0.13445,-0.216195,-0.162626
1413393239255760384,-2.05382,3.47444,1.64189,0.0420036,0.808274,-0.00847676,0.587246,0.461829,-0.0427372,0.0269601,-0.00236787,0.0196991,0.0619564,-0.135145,-0.217307,-0.159641
1413393239305760512,-2.03055,3.47301,1.64311,0.0444333,0.808507,-0.00779261,0.586755,0.471392,-0.0126765,0.0342457,-0.00237773,0.019718,0.0619916,-0.136795,-0.219033,-0.163313
1413393239355760384,-2.00677,3.47278,1.64454,0.0453014,0.809211,-0.00707477,0.585726,0.476072,0.0110173,0.0438109,-0.00237334,0.019717,0.0619935,-0.137556,-0.213903,-0.163337
1413393239405760512,-1.9828,3.47334,1.64648,0.0457819,0.80943,-0.00749764,0.585382,0.482038,0.0227937,0.0478902,-0.0023593,0.0197083,0.0620309,-0.135101,-0.209183,-0.168154
1413393239455760384,-1.9586,3.47511,1.64866,0.0451369,0.810028,-0.00837818,0.584591,0.485634,0.055831,0.0531183,-0.0023432,0.0196622,0.0620279,-0.128122,-0.202832,-0.174229
1413393239505760512,-1.93425,3.47794,1.65189,0.0472302,0.81003,-0.00688192,0.584443,0.493753,0.0718245,0.0849857,-0.00232389,0.0196541,0.0620685,-0.129234,-0.200336,-0.180967
1413393239555760384,-1.9097,3.48219,1.65582,0.0450561,0.81039,-0.00874958,0.58409,0.496267,0.0961454,0.0858878,-0.00232796,0.0196048,0.0620853,-0.125957,-0.202065,-0.186807
1413393239605760512,-1.88484,3.48789,1.66074,0.0409376,0.810913,-0.0108286,0.583632,0.503888,0.131226,0.0953933,-0.0023199,0.0196324,0.0621139,-0.130084,-0.200853,-0.182999
1413393239655760384,-1.85962,3.49458,1.66606,0.0337363,0.810914,-0.0155228,0.583986,0.511433,0.135282,0.117132,-0.00231811,0.0195992,0.0621342,-0.126511,-0.201668,-0.184025
1413393239705760512,-1.83391,3.50136,1.67153,0.0231181,0.810924,-0.0228188,0.584249,0.518926,0.13057,0.115646,-0.00231112,0.0195851,0.0621368,-0.127283,-0.200808,-0.181014
1413393239755760384,-1.80783,3.5078,1.67743,0.0145247,0.810651,-0.0281562,0.584673,0.529918,0.125453,0.107677,-0.00230697,0.0195939,0.0621724,-0.127146,-0.201803,-0.174267
1413393239805760512,-1.78108,3.5133,1.68342,0.00913535,0.810699,-0.0316025,0.584538,0.538112,0.088161,0.111561,-0.0023102,0.0196329,0.0622113,-0.120167,-0.202211,-0.170285
1413393239855760384,-1.75414,3.51737,1.68848,0.00643854,0.811689,-0.0336754,0.583083,0.540936,0.0675482,0.0848618,-0.00232084,0.0196227,0.0622266,-0.111486,-0.205266,-0.167102
1413393239905760512,-1.72665,3.52021,1.69347,0.00840613,0.812391,-0.0321039,0.582168,0.549746,0.0429791,0.0968864,-0.00234098,0.0196145,0.0622221,-0.100574,-0.204345,-0.162949
1413393239955760384,-1.69882,3.52156,1.6976,0.00989651,0.812419,-0.0311297,0.582158,0.561548,0.0165591,0.104079,-0.00233833,0.0196143,0.0622762,-0.0962619,-0.202103,-0.168462
1413393240005760512,-1.67036,3.52191,1.70274,0.0141205,0.811584,-0.0282672,0.583381,0.571011,-0.00443531,0.0987149,-0.0023371,0.0195957,0.0622743,-0.091694,-0.201544,-0.163852
1413393240055760384,-1.64166,3.5213,1.70809,0.0191341,0.810779,-0.0245262,0.584525,0.571103,-0.0200192,0.108559,-0.0023488,0.0195943,0.0623069,-0.09529,-0.202221,-0.167696
1413393240105760512,-1.61296,3.52003,1.71397,0.0263442,0.80913,-0.0194287,0.586718,0.571472,-0.0340554,0.120158,-0.00234321,0.0195962,0.0623308,-0.0984272,-0.199871,-0.166648
1413393240155760384,-1.5843,3.51871,1.71937,0.0324759,0.80789,-0.0146176,0.588257,0.573793,-0.0209674,0.088579,-0.00234242,0.0196341,0.062365,-0.105027,-0.196633,-0.17074
1413393240205760512,-1.55592,3.51791,1.72302,0.0365576,0.80674,-0.0109705,0.589673,0.562564,-0.0091315,0.0459859,-0.00234286,0.0196456,0.0623744,-0.10937,-0.197065,-0.169462
1413393240255760384,-1.52773,3.5176,1.72394,0.0395169,0.806933,-0.00837036,0.589261,0.562785,0.00153493,-0.00634274,-0.00234349,0.0196457,0.0624036,-0.112687,-0.196466,-0.168053
1413393240305760512,-1.49974,3.51813,1.72183,0.0384548,0.806915,-0.00884237,0.589348,0.565999,0.021981,-0.0610848,-0.0023403,0.0196666,0.0624229,-0.117956,-0.197681,-0.169315
1413393240355760384,-1.47126,3.51937,1.71754,0.0365787,0.806774,-0.00967914,0.589648,0.570792,0.030924,-0.113053,-0.00233166,0.0196787,0.0624409,-0.119556,-0.193769,-0.167234
1413393240405760512,-1.44231,3.52098,1.71046,0.031807,0.806569,-0.0129438,0.590142,0.586547,0.0380878,-0.153761,-0.00233263,0.0197083,0.062477,-0.121874,-0.193183,-0.168137
1413393240455760384,-1.41314,3.52276,1.70161,0.0275636,0.80585,-0.0155317,0.591274,0.582512,0.0357157,-0.197681,-0.00232297,0.0197074,0.0625017,-0.123332,-0.192059,-0.167932
1413393240505760512,-1.38449,3.52451,1.69092,0.0214333,0.805551,-0.0197763,0.591809,0.562186,0.0349766,-0.212523,-0.00232425,0.0196892,0.0625408,-0.123257,-0.189075,-0.166617
1413393240555760384,-1.35685,3.526,1.68099,0.016968,0.80481,-0.023095,0.59284,0.543699,0.0301722,-0.177614,-0.00233098,0.0196874,0.0625714,-0.126928,-0.187186,-0.164111
1413393240605760512,-1.33016,3.52729,1.67392,0.0134319,0.80431,-0.0259441,0.593492,0.516396,0.0189032,-0.131377,-0.00232601,0.0197037,0.0625833,-0.127222,-0.185334,-0.161264
1413393240655760384,-1.3039,3.52768,1.6692,0.0124516,0.804155,-0.0275448,0.593651,0.540444,0.000236403,-0.0692787,-0.00232699,0.0197088,0.0626146,-0.126353,-0.184435,-0.164777
1413393240705760512,-1.27641,3.52731,1.66944,0.0135494,0.804303,-0.0282248,0.593394,0.5619,-0.0193711,0.0748321,-0.00234219,0.0196959,0.0626236,-0.127814,-0.184296,-0.159394
1413393240755760384,-1.2484,3.52606,1.67545,0.0175914,0.803479,-0.0271444,0.594454,0.552934,-0.0269866,0.133497,-0.00232854,0.0197042,0.0626385,-0.12942,-0.179816,-0.165164
1413393240805760512,-1.22087,3.52442,1.68288,0.0218925,0.801978,-0.0258504,0.596393,0.551487,-0.0379849,0.159551,-0.00233267,0.0197108,0.0626528,-0.130876,-0.17925,-0.167564
1413393240855760384,-1.19363,3.52253,1.6899,0.0273354,0.800446,-0.0235218,0.598319,0.541056,-0.0336276,0.131649,-0.00233531,0.0197347,0.0626618,-0.131546,-0.177078,-0.172293
1413393240905760512,-1.16673,3.52054,1.69499,0.0307447,0.797764,-0.0226335,0.60176,0.524473,-0.0436044,0.07618,-0.00232962,0.0197384,0.0627054,-0.131703,-0.175961,-0.172571
1413393240955760384,-1.14135,3.51862,1.69692,0.0338144,0.794945,-0.0226353,0.605315,0.491564,-0.0375073,0.00754798,-0.00233253,0.0197256,0.062713,-0.130926,-0.174422,-0.175945
1413393241005760512,-1.11695,3.51705,1.69566,0.0361658,0.792191,-0.0224861,0.608786,0.485975,-0.0291891,-0.045462,-0.00233144,0.019738,0.0627454,-0.129706,-0.171477,-0.178564
1413393241055760384,-1.09277,3.51561,1.69204,0.0364368,0.789889,-0.0239576,0.611698,0.474941,-0.0322697,-0.0978101,-0.00232248,0.019735,0.0627576,-0.130011,-0.17036,-0.178548
1413393241105760512,-1.0694,3.5143,1.68504,0.0338061,0.789135,-0.0273146,0.612681,0.457821,-0.022305,-0.167,-0.00233287,0.0197335,0.0627881,-0.129935,-0.170915,-0.179982
1413393241155760384,-1.04725,3.51315,1.67552,0.0291985,0.789013,-0.0324129,0.612825,0.429339,-0.0253533,-0.223107,-0.00232952,0.0197498,0.062816,-0.132192,-0.172195,-0.177896
1413393241205760512,-1.02613,3.51192,1.66378,0.0244113,0.789661,-0.037027,0.611939,0.413861,-0.027565,-0.24585,-0.00232665,0.0197529,0.0628349,-0.133684,-0.171115,-0.17604
1413393241255760384,-1.00607,3.51027,1.65155,0.0203369,0.790849,-0.0415563,0.61026,0.389536,-0.0393048,-0.249873,-0.002324,0.0197546,0.0628595,-0.13328,-0.168646,-0.175988
1413393241305760512,-0.987089,3.50802,1.63952,0.0173778,0.7932,-0.0452905,0.607027,0.3718,-0.0573218,-0.231028,-0.00231758,0.0197567,0.062886,-0.130924,-0.168506,-0.175978
1413393241355760384,-0.968939,3.50478,1.62762,0.0176084,0.798519,-0.0470494,0.59987,0.352361,-0.0706927,-0.224679,-0.0023131,0.0197832,0.0628907,-0.133981,-0.167037,-0.177682
1413393241405760512,-0.951375,3.50077,1.61699,0.0175136,0.802167,-0.0487222,0.59485,0.343473,-0.0940399,-0.211126,-0.0023239,0.0198137,0.0629131,-0.134108,-0.164969,-0.179318
1413393241455760384,-0.934259,3.49561,1.60746,0.0204888,0.804759,-0.0484513,0.591266,0.338106,-0.116398,-0.175315,-0.00232846,0.0198154,0.0629253,-0.132302,-0.166391,-0.184052
1413393241505760512,-0.917327,3.48976,1.59937,0.0252218,0.805997,-0.0460367,0.589587,0.335955,-0.119725,-0.140797,-0.00233461,0.0198355,0.0629444,-0.131224,-0.165545,-0.187822
1413393241555760384,-0.9003,3.48331,1.59238,0.0303999,0.805448,-0.0434084,0.590292,0.341859,-0.140982,-0.136312,-0.00234295,0.0198464,0.0629642,-0.130372,-0.164244,-0.193739
1413393241605760512,-0.883071,3.47641,1.58597,0.0362794,0.803727,-0.0400295,0.59254,0.346292,-0.138741,-0.136353,-0.00232748,0.0198487,0.0629979,-0.130791,-0.161796,-0.195695
1413393241655760384,-0.865845,3.46968,1.5795,0.0404831,0.802475,-0.0369934,0.594161,0.343938,-0.127128,-0.126285,-0.00232903,0.0198423,0.0630333,-0.131068,-0.160952,-0.199336
1413393241705760512,-0.848596,3.46311,1.57304,0.0449637,0.801004,-0.0339017,0.596005,0.343673,-0.127603,-0.130808,-0.00232859,0.0198327,0.0630485,-0.133387,-0.158703,-0.198197
1413393241755760384,-0.831375,3.45697,1.56653,0.0470842,0.800712,-0.0327016,0.5963,0.343575,-0.117528,-0.123139,-0.00232882,0.0198445,0.0630679,-0.135474,-0.159377,-0.197234
1413393241805760512,-0.814162,3.45157,1.56012,0.0490616,0.801492,-0.0308195,0.595192,0.340388,-0.0950288,-0.126939,-0.00232784,0.019823,0.0630858,-0.136523,-0.15549,-0.197746
1413393241855760384,-0.79705,3.44702,1.55408,0.0501724,0.802125,-0.0291765,0.594329,0.341811,-0.0863913,-0.118936,-0.00232531,0.0198324,0.0631153,-0.13793,-0.154012,-0.19907
1413393241905760512,-0.780066,3.44342,1.54919,0.0506393,0.80116,-0.0284507,0.595624,0.336065,-0.0646425,-0.0781017,-0.00231951,0.0198483,0.0631608,-0.138094,-0.152591,-0.199878
1413393241955760384,-0.763489,3.44096,1.54517,0.0510109,0.798924,-0.0262461,0.59869,0.327251,-0.035812,-0.0786188,-0.00232049,0.0198626,0.0631861,-0.137663,-0.150967,-0.199646
1413393242005760512,-0.747303,3.43944,1.54098,0.0504225,0.797249,-0.0252254,0.601012,0.321076,-0.0276759,-0.0781962,-0.00231322,0.0198574,0.0632007,-0.138002,-0.150114,-0.201658
1413393242055760384,-0.731667,3.43888,1.53766,0.0501077,0.794396,-0.0236246,0.604869,0.307599,0.0069307,-0.0562568,-0.00233691,0.0198731,0.0632138,-0.140351,-0.151022,-0.201875
1413393242105760512,-0.716795,3.43949,1.53475,0.0496896,0.791968,-0.0216617,0.608152,0.290173,0.0244178,-0.0483401,-0.00233873,0.0198799,0.0632389,-0.141652,-0.150743,-0.200982
1413393242155760384,-0.702925,3.44105,1.53248,0.0471085,0.78836,-0.0220286,0.613012,0.268086,0.0347787,-0.0400847,-0.00234259,0.0198804,0.0632506,-0.143153,-0.151559,-0.199464
1413393242205760512,-0.69031,3.44369,1.53101,0.0435704,0.784379,-0.022655,0.618335,0.236892,0.0672763,-0.0286627,-0.00238415,0.0198862,0.0632586,-0.14614,-0.155101,-0.20033
1413393242255760384,-0.679209,3.44693,1.52974,0.0415531,0.781821,-0.0223992,0.621714,0.206009,0.0663878,-0.0233297,-0.00238628,0.0198952,0.0632619,-0.148019,-0.159596,-0.202638
1413393242305760512,-0.669701,3.45063,1.52882,0.0390049,0.78074,-0.0235959,0.623192,0.172023,0.0725189,-0.0204124,-0.00238776,0.0199019,0.0632768,-0.149639,-0.161523,-0.204603
1413393242355760384,-0.661827,3.45491,1.52746,0.0349145,0.781924,-0.0253772,0.621878,0.147461,0.0927565,-0.0339126,-0.00240739,0.0199166,0.0632912,-0.150862,-0.161513,-0.204567
1413393242405760512,-0.655423,3.45948,1.52612,0.0290676,0.785235,-0.0286308,0.617852,0.113652,0.0941049,-0.0281454,-0.00240254,0.0199223,0.0633243,-0.150246,-0.161186,-0.205089
1413393242455760384,-0.65042,3.46406,1.52445,0.0224252,0.790409,-0.032809,0.611289,0.0902372,0.0939158,-0.0242312,-0.00239895,0.0199356,0.0633523,-0.152244,-0.156246,-0.203049
1413393242505760512,-0.646608,3.46826,1.52271,0.0150641,0.796517,-0.0376225,0.603257,0.0696425,0.0859474,-0.0318556,-0.00238947,0.0199308,0.0633857,-0.150178,-0.14954,-0.20407
1413393242555760384,-0.643358,3.47177,1.52158,0.00964428,0.801947,-0.0409831,0.59591,0.063366,0.0626393,0.000522818,-0.00238352,0.0199304,0.0634118,-0.147357,-0.14715,-0.203454
1413393242605760512,-0.640332,3.4742,1.52135,0.00566989,0.806146,-0.043601,0.590081,0.0600513,0.0333029,0.01109,-0.00238813,0.0199298,0.0634245,-0.146671,-0.144515,-0.20213
1413393242655760384,-0.637049,3.47519,1.52211,0.0036512,0.808848,-0.0446722,0.586307,0.071007,0.0135855,0.0346784,-0.00237456,0.019926,0.0634587,-0.146343,-0.139664,-0.200908
1413393242705760512,-0.633255,3.47482,1.52401,0.00158624,0.809729,-0.0462607,0.584976,0.0834725,-0.0254233,0.0386302,-0.00238176,0.0199448,0.0634703,-0.145181,-0.139748,-0.20078
1413393242755760384,-0.628903,3.47295,1.52648,-0.00224488,0.809427,-0.0477758,0.58527,0.091809,-0.0459671,0.0684005,-0.00237489,0.0199412,0.063502,-0.144086,-0.138272,-0.200739
1413393242805760512,-0.623838,3.46968,1.5299,-0.00355764,0.808771,-0.0462536,0.586292,0.105096,-0.0855209,0.0728947,-0.00237043,0.0199401,0.063515,-0.141475,-0.139909,-0.200711
1413393242855760384,-0.618241,3.46446,1.53351,-0.00307951,0.80821,-0.0416852,0.587409,0.114543,-0.116158,0.094495,-0.00236956,0.0199456,0.0635403,-0.140751,-0.13755,-0.197933
1413393242905760512,-0.612142,3.45808,1.53845,0.0024035,0.807877,-0.0314305,0.588508,0.125986,-0.133104,0.086812,-0.00236891,0.0199484,0.0635505,-0.140719,-0.137802,-0.198366
1413393242955760384,-0.605747,3.45058,1.54314,0.00621895,0.809042,-0.0216268,0.587321,0.127586,-0.165234,0.10754,-0.00236469,0.0199376,0.0635866,-0.142238,-0.136915,-0.196633
1413393243005760512,-0.599109,3.44251,1.54855,0.008305,0.810804,-0.0111607,0.585153,0.140054,-0.160244,0.111797,-0.00236529,0.0199417,0.0636109,-0.141496,-0.135877,-0.196938
1413393243055760384,-0.591671,3.43424,1.55427,0.00812228,0.812239,0.000357286,0.583268,0.153216,-0.163276,0.102713,-0.00236443,0.019951,0.0636412,-0.140821,-0.137079,-0.193874
1413393243105760512,-0.583527,3.42596,1.56004,0.0059502,0.813836,0.0111411,0.580958,0.170234,-0.169445,0.118507,-0.00236313,0.0199701,0.0636598,-0.138804,-0.136883,-0.193677
1413393243155760384,-0.574504,3.41805,1.56658,0.000312024,0.813932,0.0218344,0.58055,0.18665,-0.142285,0.137522,-0.00236704,0.0199382,0.0636805,-0.137401,-0.133992,-0.189569
1413393243205760512,-0.564896,3.41097,1.57403,-0.00612739,0.811436,0.0329253,0.583481,0.200215,-0.133302,0.161337,-0.00236826,0.0199616,0.0637004,-0.136083,-0.132605,-0.188113
1413393243255760384,-0.554796,3.40415,1.58222,-0.0116835,0.806644,0.0423731,0.589401,0.207017,-0.144685,0.158958,-0.00237476,0.0199649,0.0637231,-0.134983,-0.131171,-0.187949
1413393243305760512,-0.54442,3.39748,1.58901,-0.0167715,0.801575,0.0512144,0.595461,0.206967,-0.115006,0.106588,-0.00237013,0.019973,0.0637477,-0.134453,-0.129561,-0.186138
1413393243355760384,-0.533935,3.39116,1.59259,-0.0224723,0.797706,0.0578297,0.599847,0.205914,-0.12623,0.0542727,-0.0023802,0.0199659,0.0637747,-0.132798,-0.129909,-0.183485
1413393243405760512,-0.523972,3.38499,1.59425,-0.0264529,0.793924,0.0632364,0.604141,0.19016,-0.121595,0.00517404,-0.00238366,0.019974,0.0637936,-0.131457,-0.130437,-0.181682
1413393243455760384,-0.51475,3.37927,1.59318,-0.0305755,0.791547,0.0681546,0.606526,0.174125,-0.103176,-0.0331727,-0.00237894,0.0199743,0.063809,-0.130327,-0.130987,-0.178036
1413393243505760512,-0.506204,3.37371,1.58966,-0.0341234,0.78957,0.0718948,0.608479,0.158309,-0.10408,-0.0972491,-0.00240032,0.0199775,0.0638224,-0.127421,-0.13064,-0.174548
1413393243555760384,-0.498473,3.36859,1.5835,-0.0373193,0.788559,0.074954,0.609233,0.138515,-0.103026,-0.139057,-0.00239049,0.0199779,0.0638528,-0.126144,-0.132038,-0.17618
1413393243605760512,-0.491738,3.36374,1.57621,-0.0392889,0.788324,0.0777782,0.609059,0.12132,-0.0997926,-0.145617,-0.00239329,0.0199896,0.0638807,-0.126994,-0.135157,-0.175401
1413393243655760384,-0.48592,3.35935,1.5691,-0.0405332,0.788727,0.0803274,0.608124,0.0968781,-0.0941775,-0.154197,-0.00240954,0.0200161,0.0638968,-0.126576,-0.144474,-0.173239
1413393243705760512,-0.481468,3.35524,1.56235,-0.0407797,0.790015,0.0829559,0.606079,0.0737867,-0.0811596,-0.121641,-0.00241758,0.0200296,0.0639226,-0.125486,-0.151134,-0.171525
1413393243755760384,-0.478415,3.35116,1.5561,-0.0413084,0.791593,0.0844204,0.603778,0.046911,-0.0804618,-0.108923,-0.00242497,0.0200215,0.0639447,-0.124469,-0.152407,-0.17077
1413393243805760512,-0.476648,3.34746,1.55112,-0.0407854,0.793041,0.0860714,0.601676,0.0214766,-0.0735911,-0.0783993,-0.00243188,0.0200264,0.0639578,-0.129891,-0.15432,-0.172369
1413393243855760384,-0.476041,3.34424,1.5477,-0.0421775,0.793679,0.0863676,0.600696,0.00523705,-0.0612014,-0.0682654,-0.00243839,0.0200342,0.0639812,-0.13827,-0.156229,-0.173334
1413393243905760512,-0.476317,3.34092,1.54441,-0.0418149,0.793907,0.0872034,0.6003,-0.0101568,-0.0598939,-0.0343722,-0.00242675,0.0200289,0.0640146,-0.145789,-0.151072,-0.172903
1413393243955760384,-0.477312,3.33804,1.54214,-0.0419767,0.793818,0.0876918,0.600334,-0.0262775,-0.0507481,-0.0248039,-0.00241711,0.0200226,0.064035,-0.148202,-0.148222,-0.173429
1413393244005760512,-0.479119,3.33474,1.53988,-0.0421953,0.793984,0.0877431,0.600093,-0.0367267,-0.0412853,-0.0202402,-0.00240581,0.0199908,0.0640644,-0.146902,-0.13591,-0.169872
1413393244055760384,-0.481458,3.33211,1.53861,-0.0412033,0.793519,0.0881371,0.600718,-0.0489269,-0.0315512,-0.000575516,-0.00239537,0.0199744,0.0640866,-0.147479,-0.129231,-0.168252
1413393244105760512,-0.484545,3.33033,1.53819,-0.0404089,0.793694,0.088578,0.600476,-0.0662964,-0.0186102,0.0210518,-0.00239556,0.0199537,0.0641006,-0.14716,-0.126572,-0.167558
1413393244155760384,-0.488329,3.3294,1.53817,-0.0401414,0.793785,0.0898069,0.600191,-0.0861932,-0.00517143,0.00202654,-0.00239364,0.0199516,0.0641208,-0.146254,-0.122454,-0.16671
1413393244205760512,-0.492991,3.32996,1.53844,-0.0421855,0.79353,0.0921532,0.600032,-0.0979105,0.0220536,0.00467011,-0.00239033,0.0199622,0.0641303,-0.145869,-0.124264,-0.168129
1413393244255760384,-0.498225,3.33128,1.5387,-0.0444617,0.793622,0.0966948,0.599031,-0.113034,0.0356458,0.00875123,-0.00238677,0.019963,0.0641649,-0.144978,-0.123015,-0.168473
1413393244305760512,-0.504222,3.33373,1.53918,-0.0472971,0.793726,0.102571,0.597697,-0.126956,0.0547253,0.0205015,-0.00238198,0.0199586,0.0641868,-0.143881,-0.124271,-0.169703
1413393244355760384,-0.510731,3.33699,1.53921,-0.0519557,0.79362,0.109321,0.596253,-0.134415,0.0808988,0.00547237,-0.00238267,0.0199488,0.0642126,-0.143015,-0.123099,-0.168138
1413393244405760512,-0.517362,3.34095,1.5385,-0.0569061,0.792244,0.114768,0.596607,-0.134939,0.0718165,-0.0316524,-0.00238506,0.0199392,0.0642318,-0.143616,-0.124813,-0.166851
1413393244455760384,-0.524788,3.34481,1.53623,-0.0625667,0.790436,0.118743,0.597659,-0.151253,0.0802603,-0.0730574,-0.00237932,0.0199399,0.0642481,-0.145499,-0.122012,-0.16549
1413393244505760512,-0.53259,3.34908,1.53101,-0.0683221,0.789434,0.122234,0.59765,-0.160686,0.0828131,-0.133115,-0.00238434,0.0199525,0.0642753,-0.145674,-0.124268,-0.164163
1413393244555760384,-0.540629,3.35273,1.52234,-0.0735293,0.788218,0.124634,0.598141,-0.167995,0.0635936,-0.194834,-0.00238636,0.0199521,0.0643028,-0.144975,-0.126514,-0.162482
1413393244605760512,-0.548916,3.35623,1.51176,-0.0780573,0.788312,0.126982,0.596948,-0.169232,0.0724427,-0.222031,-0.00238293,0.0199522,0.0643254,-0.145441,-0.130839,-0.159549
1413393244655760384,-0.557465,3.36004,1.50172,-0.0820711,0.788592,0.128996,0.595606,-0.166352,0.0735076,-0.187395,-0.00238912,0.0199951,0.0643409,-0.146876,-0.137103,-0.160744
1413393244705760512,-0.566613,3.36329,1.4951,-0.0851157,0.787813,0.130839,0.595809,-0.209202,0.0614108,-0.116904,-0.00239297,0.0199883,0.0643606,-0.144703,-0.137159,-0.159374
1413393244755760384,-0.577632,3.36605,1.48813,-0.0902935,0.788578,0.130284,0.594153,-0.228802,0.0537883,-0.105912,-0.00238929,0.019969,0.0643939,-0.143386,-0.131579,-0.15542
1413393244805760512,-0.589246,3.36849,1.48402,-0.0957005,0.788564,0.128972,0.593611,-0.236495,0.0514429,-0.0389457,-0.00239828,0.0199673,0.0644112,-0.141521,-0.129017,-0.154835
1413393244855760384,-0.601794,3.37071,1.48366,-0.0992707,0.789342,0.128191,0.592158,-0.259939,0.0442162,0.0494199,-0.00239756,0.019959,0.0644317,-0.138092,-0.128616,-0.154845
1413393244905760512,-0.614104,3.37224,1.4882,-0.101646,0.789294,0.127015,0.592073,-0.236144,0.0301852,0.13879,-0.00238451,0.0199621,0.0644564,-0.13773,-0.130754,-0.158648
1413393244955760384,-0.62628,3.3732,1.4968,-0.101923,0.789022,0.127056,0.592379,-0.25583,0.0130606,0.204845,-0.00237749,0.0199498,0.0644853,-0.136294,-0.132198,-0.162774
1413393245005760512,-0.639516,3.373,1.50603,-0.0990988,0.790274,0.128783,0.590814,-0.260884,-0.00820816,0.188819,-0.00237775,0.0199608,0.0645048,-0.13808,-0.135297,-0.163241
1413393245055760384,-0.652963,3.37197,1.51472,-0.09663,0.792511,0.129297,0.588108,-0.266142,-0.0198585,0.153237,-0.00237873,0.0199633,0.064521,-0.138484,-0.139699,-0.162591
1413393245105760512,-0.666296,3.37045,1.5214,-0.0935118,0.795084,0.13069,0.584822,-0.262314,-0.0251817,0.097828,-0.00236363,0.0199581,0.0645549,-0.136543,-0.144508,-0.166665
1413393245155760384,-0.679323,3.36852,1.52543,-0.0915216,0.798134,0.130665,0.580976,-0.249862,-0.038262,0.0494204,-0.00236218,0.0199634,0.064575,-0.136599,-0.146591,-0.166977
1413393245205760512,-0.692046,3.36627,1.52688,-0.0891976,0.801151,0.131029,0.57709,-0.241885,-0.0454233,0.00630071,-0.00235254,0.0199593,0.0646169,-0.135973,-0.146776,-0.170277
1413393245255760384,-0.704527,3.36344,1.52583,-0.086608,0.802314,0.131939,0.575659,-0.233063,-0.0538875,-0.0474773,-0.00232846,0.0199527,0.0646566,-0.133736,-0.149272,-0.173923
1413393245305760512,-0.716158,3.36055,1.52212,-0.0841485,0.802995,0.132674,0.574905,-0.215423,-0.0481298,-0.103523,-0.00232223,0.0199623,0.0646909,-0.133054,-0.151825,-0.174554
1413393245355760384,-0.726758,3.35766,1.51608,-0.0813909,0.802365,0.133902,0.575896,-0.202906,-0.0403022,-0.143658,-0.00230697,0.0199682,0.0647292,-0.133207,-0.156289,-0.175782
1413393245405760512,-0.736741,3.3553,1.509,-0.0791606,0.801421,0.134584,0.577361,-0.179575,-0.0446629,-0.174527,-0.00228671,0.0199786,0.0647501,-0.131521,-0.162305,-0.175347
1413393245455760384,-0.746636,3.35323,1.50086,-0.0764161,0.799935,0.135659,0.579535,-0.177549,-0.0407223,-0.215253,-0.00227207,0.0199925,0.0647744,-0.129418,-0.167928,-0.170596
1413393245505760512,-0.756265,3.35086,1.48969,-0.0740492,0.798378,0.136581,0.581769,-0.169795,-0.0313607,-0.240194,-0.0022513,0.0200098,0.0647899,-0.127074,-0.174575,-0.172093
1413393245555760384,-0.774759,3.33437,1.43701,-0.0758915,0.787201,0.134296,0.597092,-0.158142,-0.0302378,-0.242779,-0.00210096,0.0192119,0.0652078,-0.216975,-0.109111,-0.462401
1413393245605760512,-0.809616,3.32018,1.38394,-0.0718044,0.773574,0.134318,0.615131,-0.146952,-0.0171047,-0.24636,-0.00181694,0.0185795,0.0659232,-0.317615,-0.178332,-0.810012
1413393245655760384,-0.803422,3.32298,1.38609,-0.0726204,0.778164,0.133102,0.609485,-0.160002,0.00104893,-0.233758,-0.00195607,0.0188093,0.0655223,-0.262108,-0.10349,-0.632054
1413393245705760512,-0.811243,3.32359,1.37615,-0.0697626,0.777389,0.133514,0.610716,-0.162012,0.0132967,-0.211345,-0.00194973,0.0188448,0.065529,-0.257996,-0.104262,-0.624509
1413393245755760384,-0.819579,3.32487,1.36634,-0.0674563,0.777992,0.132936,0.610333,-0.170122,0.0271199,-0.201277,-0.00195504,0.0188672,0.065544,-0.257257,-0.116441,-0.62597
1413393245805760512,-0.828119,3.3268,1.35682,-0.0663037,0.778873,0.131329,0.609684,-0.175592,0.0427612,-0.185956,-0.00194885,0.0188716,0.0655577,-0.254937,-0.12291,-0.622687
