#timestamp, p_RS_R_x [m], p_RS_R_y [m], p_RS_R_z [m], q_RS_w [], q_RS_x [], q_RS_y [], q_RS_z [], v_RS_R_x [m s^-1], v_RS_R_y [m s^-1], v_RS_R_z [m s^-1], b_w_RS_S_x [rad s^-1], b_w_RS_S_y [rad s^-1], b_w_RS_S_z [rad s^-1], b_a_RS_S_x [m s^-2], b_a_RS_S_y [m s^-2], b_a_RS_S_z [m s^-2]
1413393212255760384,-1.07611,0.492467,1.32992,0.602686,-0.00124982,-0.797973,0.00273293,-0.00277186,0.00747702,0.00520599,-0.000426612,0.00459522,0.0160874,-0.00122419,2.74737e-05,0.000337608
1413393212305760512,-1.07876,0.494355,1.32976,0.602774,-0.00166705,-0.797904,0.00324249,-0.00190237,0.00270738,0.00458817,-0.000427139,0.00467224,0.0163266,-0.00179741,3.98953e-05,0.000495924
1413393212355760384,-1.08306,0.50045,1.3299,0.602753,-0.00173081,-0.797919,0.00342205,-0.00325032,0.00025306,0.00442197,-0.000440057,0.00475499,0.0166183,-0.00240134,5.21571e-05,0.000663222
1413393212405760512,-1.08276,0.501142,1.33024,0.602696,-0.00176227,-0.797961,0.00350449,-0.00262945,0.0022902,0.00293038,-0.000453321,0.00484231,0.0168786,-0.00302203,6.40284e-05,0.000835656
1413393212455760384,-1.08434,0.498434,1.32971,0.602678,-0.0017978,-0.797975,0.00344332,-0.000556275,-0.0012414,0.00339459,-0.000454897,0.00491937,0.0171399,-0.00363664,7.51086e-05,0.00100704
1413393212505760512,-1.08184,0.498103,1.32976,0.602678,-0.0017154,-0.797975,0.00352652,-0.000501208,-0.000479894,0.00473205,-0.000460112,0.00500719,0.017407,-0.00427213,8.5342e-05,0.00118526
1413393212555760384,-1.08241,0.500175,1.32961,0.602658,-0.00165309,-0.79799,0.00359287,-0.00090501,-0.00319507,0.000767331,-0.000477338,0.00508576,0.017662,-0.00489115,9.45427e-05,0.00135936
1413393212605760512,-1.08236,0.498627,1.32995,0.602658,-0.00177045,-0.79799,0.00363782,-0.00124499,0.00372288,0.00119417,-0.000493327,0.00515748,0.0179057,-0.00552258,0.00010323,0.00153836
1413393212655760384,-1.07568,0.501748,1.32938,0.602633,-0.00177729,-0.798009,0.00350199,-0.0019955,0.00062432,0.000185605,-0.000504052,0.00522654,0.0181681,-0.00610354,0.000110503,0.0017043
1413393212705760512,-1.07675,0.500547,1.32972,0.602653,-0.00176946,-0.797993,0.00374812,0.000655747,-0.00207703,-0.000906685,-0.000503685,0.00530378,0.0184224,-0.00668142,0.000117919,0.00186892
1413393212755760384,-1.07842,0.502336,1.33032,0.602654,-0.00168511,-0.797993,0.00355648,0.000461814,0.00183807,-0.000727234,-0.000506417,0.00537599,0.0186686,-0.00728704,0.000124801,0.00204406
1413393212805760512,-1.07818,0.505355,1.32982,0.602672,-0.00164176,-0.797979,0.0036242,9.01186e-05,-0.00174302,-0.00043185,-0.000516776,0.00545054,0.0189094,-0.00786611,0.000132816,0.00221318
1413393212855760384,-1.07311,0.508614,1.32982,0.60267,-0.00163614,-0.797981,0.00359678,0.000511886,0.00134514,-0.000390666,-0.00052332,0.00551406,0.019138,-0.00842549,0.000139093,0.00237785
1413393212905760512,-1.0663,0.515285,1.32996,0.602657,-0.00166088,-0.797991,0.00350975,-6.39382e-05,0.000966975,-0.000243516,-0.000545896,0.00558822,0.0193724,-0.00897092,0.000144496,0.00254039
1413393212955760384,-1.05918,0.525468,1.32864,0.602645,-0.00159606,-0.798,0.0037002,0.000274333,-0.00257719,-0.000590536,-0.000555966,0.00565536,0.0196251,-0.00952696,0.000147537,0.00270846
1413393213005760512,-1.02792,0.608152,1.33155,0.602675,-0.00147179,-0.797977,0.00374944,0.00197936,0.000918883,0.000907383,-0.000552887,0.00572029,0.0198769,-0.0100364,0.000156676,0.00284763
1413393213055760384,-0.989337,0.749375,1.33515,0.602698,-0.00136114,-0.797959,0.00391117,0.0010912,-0.000217551,0.000454935,-0.000571253,0.00578968,0.0201213,-0.0105214,0.000155002,0.00296096
1413393213105760512,-0.981331,0.800516,1.33826,0.602678,-0.00118352,-0.797973,0.00412608,-0.000145433,-0.00084417,-0.00333994,-0.000574835,0.00585831,0.0203428,-0.0109676,0.000157391,0.00307042
1413393213155760384,-0.992877,0.761597,1.3392,0.602637,-0.00133291,-0.798004,0.00397739,-0.00034148,0.000714195,-0.000586199,-0.000575862,0.00591797,0.0205849,-0.0114806,0.000170506,0.00320973
1413393213205760512,-0.985722,0.736439,1.33912,0.602671,-0.00193357,-0.79798,0.00356619,0.000129104,0.00160348,-0.000548068,-0.000581934,0.00599688,0.0208075,-0.011889,0.000163421,0.00331081
1413393213255760384,-0.945812,0.769767,1.33948,0.602676,-0.00504223,-0.797969,0.00112029,0.000545027,0.000583601,0.00116277,-0.000583826,0.00604409,0.0210083,-0.0122755,0.00018102,0.00340975
1413393213305760512,-0.946955,0.767576,1.33934,0.602713,-0.0054623,-0.797939,0.00081732,-0.000699267,-0.00151319,0.000547656,-0.000600094,0.00609804,0.0212468,-0.0127783,0.000169722,0.00353407
1413393213355760384,-0.944045,0.765547,1.33905,0.602699,-0.0058763,-0.797947,0.000701487,7.27862e-05,0.00183223,-0.00253002,-0.000589891,0.00617576,0.0215406,-0.0133568,0.000179679,0.00363918
1413393213405760512,-0.94004,0.763655,1.33735,0.602694,-0.00574216,-0.797952,0.000613656,0.000165152,0.00167313,-0.000609209,-0.000581546,0.00623721,0.0217719,-0.0138822,0.000191836,0.00372963
1413393213455760384,-0.939238,0.760753,1.33508,0.602681,-0.00559268,-0.797963,0.00079165,-0.000572161,-0.00103438,-0.0025104,-0.000585524,0.00631807,0.0219995,-0.0143703,0.000190982,0.0037925
1413393213505760512,-0.936829,0.755021,1.33214,0.602662,-0.00524111,-0.797979,0.000914295,-0.00141879,-0.000550636,-0.00154478,-0.000592751,0.00638832,0.0222158,-0.0148901,0.000206779,0.00384363
1413393213555760384,-0.937839,0.754198,1.33135,0.602658,-0.00430923,-0.797987,0.00157645,3.74044e-05,0.000934501,-6.27996e-05,-0.000589643,0.00646054,0.0224406,-0.0153755,0.000219828,0.00389475
1413393213605760512,-0.939352,0.753437,1.33128,0.602671,-0.00410609,-0.797977,0.00177951,0.0010277,0.00210179,0.000215477,-0.000585873,0.00653419,0.0226954,-0.0159012,0.000227789,0.00398071
1413393213655760384,-0.935489,0.749313,1.33085,0.602687,-0.00374669,-0.797967,0.00196611,0.000876999,0.000173515,-0.000304003,-0.00061031,0.0065982,0.0228677,-0.0163319,0.000229188,0.00401438
1413393213705760512,-0.94069,0.755462,1.33066,0.602685,-0.00187398,-0.797969,0.00348257,0.00112525,-0.00174337,0.000349644,-0.000608734,0.00666544,0.0231094,-0.0168599,0.000242163,0.00407686
1413393213755760384,-0.943592,0.757797,1.33069,0.60266,-0.00108421,-0.797987,0.0041183,0.00193846,-5.54955e-05,-0.000246064,-0.000614319,0.00671474,0.0232856,-0.0172851,0.000267522,0.00411128
1413393213805760512,-0.940829,0.756859,1.33095,0.602688,-0.00194098,-0.797967,0.00347955,0.00128016,0.000554078,-0.00217797,-0.000636047,0.00676606,0.0234859,-0.0177126,0.000269506,0.0041322
1413393213855760384,-0.942182,0.755942,1.33093,0.602683,0.00091916,-0.79796,0.00566596,0.000252124,-0.000240056,0.000217649,-0.000659861,0.0068358,0.0237023,-0.0181953,0.000309954,0.00414496
1413393213905760512,-0.948818,0.759929,1.33224,0.602629,-0.00156381,-0.798012,0.00378329,0.000598744,-0.00192383,0.000130151,-0.000637007,0.00689632,0.0239038,-0.0185251,0.00037834,0.00411359
1413393213955760384,-0.947862,0.758864,1.33198,0.602542,0.00228884,-0.798056,0.00670874,0.000875155,-0.00190869,0.00262473,-0.00065333,0.00694129,0.024144,-0.019073,0.00044389,0.00416515
1413393214005760512,-0.950595,0.764002,1.3322,0.602428,0.00305353,-0.798134,0.0073298,0.000124085,0.0120068,0.0054582,-0.000647928,0.00701332,0.0243714,-0.0195717,0.000505805,0.00422027
1413393214055760384,-0.930999,0.751475,1.3332,0.602557,0.00347713,-0.798033,0.00753067,0.00151427,0.0085439,0.00230015,-0.000641601,0.00703353,0.0245725,-0.020103,0.00059226,0.00427433
1413393214105760512,-0.955107,0.743006,1.33648,0.602321,0.00194538,-0.798226,0.00648893,-0.00108891,0.00371823,0.00241071,-0.000658937,0.00710982,0.0247256,-0.0204258,0.000616009,0.00432688
1413393214155760384,-0.950026,0.751105,1.33965,0.602492,0.00399069,-0.798075,0.00794288,0.00146932,0.000371066,0.00025867,-0.000640675,0.0071747,0.0249567,-0.0209408,0.000766422,0.00435943
1413393214205760512,-0.951216,0.742358,1.34165,0.602434,0.00285256,-0.798131,0.00732501,-0.000933175,0.00173509,-0.00102654,-0.000657886,0.00723266,0.0251575,-0.0213106,0.000766028,0.00444696
1413393214255760384,-0.951731,0.748865,1.34308,0.602537,0.00424392,-0.79804,0.00798818,-0.00119945,0.000121849,-0.00167314,-0.000659497,0.00727489,0.0253227,-0.0216385,0.000835364,0.0044622
1413393214305760512,-0.950941,0.741515,1.34476,0.602549,0.00287964,-0.798045,0.0071742,-0.000914818,-0.00375495,-0.00378284,-0.00065185,0.00735058,0.0256006,-0.0222375,0.000894544,0.00469028
1413393214355760384,-0.950172,0.739698,1.34541,0.602613,0.00254429,-0.798,0.00697316,-0.0010969,0.000996044,-0.00240532,-0.000683228,0.00739377,0.0257796,-0.0226963,0.000944762,0.004797
1413393214405760512,-0.949171,0.743643,1.34572,0.602594,0.00211144,-0.79802,0.00645809,7.5716e-05,-0.000841196,-0.00324692,-0.000684653,0.00747541,0.0259581,-0.0230794,0.000954168,0.00489887
1413393214455760384,-0.94946,0.745527,1.34555,0.60268,0.0016044,-0.797956,0.00631109,0.000177864,0.000541054,-0.00212805,-0.000712777,0.00747704,0.0261164,-0.0235117,0.00111029,0.00508421
1413393214505760512,-0.94756,0.751862,1.3439,0.602664,0.000884416,-0.797976,0.0055638,0.000659423,-0.000178725,-0.000328033,-0.000695964,0.00753178,0.0263199,-0.0240187,0.00124491,0.00529438
1413393214555760384,-0.946285,0.755418,1.34245,0.602707,-7.59e-05,-0.797947,0.00504769,0.00179912,-0.00193628,-0.00179355,-0.000717046,0.00762499,0.0264616,-0.0244092,0.0014071,0.0054699
1413393214605760512,-0.936447,0.76054,1.3394,0.602706,-0.00119809,-0.797952,0.00402619,0.000261262,-0.000478083,-0.00228374,-0.0007149,0.00766488,0.0266692,-0.0248811,0.00149509,0.00571959
1413393214655760384,-0.931167,0.750279,1.33709,0.602754,-0.00235467,-0.797918,0.00320669,0.00189783,-0.00324568,-0.00109235,-0.000712864,0.0077247,0.0268558,-0.0253922,0.00146419,0.00617157
1413393214705760512,-0.930043,0.740054,1.33608,0.60281,-0.00324086,-0.797875,0.0025844,-0.000489448,-0.00170433,-0.00341722,-0.000726987,0.00780995,0.0270685,-0.0258861,0.0015978,0.00649198
1413393214755760384,-0.928304,0.727116,1.33747,0.602804,-0.00393146,-0.797878,0.00194035,-2.43736e-05,-0.00289526,-0.00211225,-0.00073215,0.00785125,0.0272424,-0.0263565,0.00147755,0.00695896
1413393214805760512,-0.932616,0.72462,1.33666,0.602839,-0.00514451,-0.797846,0.00113021,-0.00019952,-0.00172719,-0.00168667,-0.000732118,0.00788199,0.0274189,-0.0268297,0.00148723,0.00735569
1413393214855760384,-0.935599,0.71523,1.33714,0.602848,-0.00557479,-0.797837,0.000731985,-0.000817305,-0.00110014,-0.00146688,-0.000783786,0.00795125,0.0275776,-0.0272837,0.00135258,0.00768834
1413393214905760512,-0.936981,0.717954,1.3359,0.602836,-0.00554636,-0.797846,0.000706251,-0.000379547,-0.00278532,-0.000690625,-0.000773971,0.00798929,0.0277706,-0.0275574,0.00147936,0.00804077
1413393214955760384,-0.933063,0.71347,1.33484,0.602815,-0.00579283,-0.79786,0.000592124,-0.000959165,-0.00223395,0.000954649,-0.000768021,0.0080433,0.0279578,-0.0279043,0.00161928,0.00838927
1413393215005760512,-0.937478,0.716225,1.32636,0.602793,-0.00634938,-0.797872,0.000176942,-0.00126245,-0.00142175,0.00197515,-0.000790318,0.00811312,0.0281185,-0.0282966,0.00183637,0.00870958
1413393215055760384,-0.957795,0.757961,1.3394,0.60263,-0.00932509,-0.797963,-0.00234123,-0.00412425,-0.00521448,0.0031142,-0.000787253,0.0081879,0.0283052,-0.0287267,0.00179442,0.00879054
1413393215105760512,-0.959126,0.76269,1.33418,0.602541,-0.0104398,-0.798015,-0.00276435,-0.00464292,-0.0100415,-0.00268943,-0.000793196,0.00823018,0.0284858,-0.0291195,0.00188805,0.00915835
1413393215155760384,-0.957492,0.761222,1.32874,0.602677,-0.0105043,-0.797911,-0.00299932,-0.004214,-0.0038317,-0.00126584,-0.000812022,0.00826155,0.0286743,-0.0295515,0.00194073,0.00954716
1413393215205760512,-0.955508,0.757062,1.31369,0.60255,-0.0113323,-0.797992,-0.00375728,-0.00504898,-0.0041315,-0.00303241,-0.000802499,0.00832207,0.0288413,-0.0301537,0.00192844,0.00985724
1413393215255760384,-0.955271,0.760961,1.3123,0.602612,-0.0108886,-0.797953,-0.00329043,-0.00495572,-0.00331983,-0.00352346,-0.000806582,0.00832514,0.0289919,-0.0306457,0.00208195,0.010098
1413393215305760512,-0.954849,0.7575,1.30233,0.602584,-0.0114341,-0.797965,-0.00375495,-0.00543859,-0.00183772,-0.00246157,-0.000817012,0.00840278,0.0291961,-0.0312246,0.00220194,0.0103496
1413393215355760384,-0.953902,0.76045,1.2982,0.602558,-0.0112878,-0.797987,-0.00366004,-0.00302572,-0.00291027,-0.0017439,-0.000804699,0.00844032,0.029341,-0.0318149,0.00219659,0.0107332
1413393215405760512,-0.95302,0.758818,1.29748,0.602363,-0.0114726,-0.798131,-0.00376947,-0.00297686,-0.000387761,0.000643299,-0.000803487,0.00848373,0.0295391,-0.0323946,0.00225601,0.0111583
1413393215455760384,-0.951651,0.757648,1.28895,0.602169,-0.0116662,-0.798273,-0.00410964,-0.00525866,0.000221855,0.00357003,-0.000824032,0.00859148,0.0297092,-0.0330284,0.00228081,0.0114889
1413393215505760512,-0.95236,0.756899,1.28911,0.602006,-0.0117931,-0.798394,-0.00406214,-0.0043976,-0.000804424,0.00226982,-0.000812171,0.00863787,0.0298945,-0.033624,0.00220132,0.0120353
1413393215555760384,-0.951859,0.756688,1.27933,0.601861,-0.0113415,-0.798512,-0.00380828,-0.00818787,-0.00106287,0.004725,-0.000840126,0.00869497,0.03004,-0.034109,0.00232406,0.0126042
1413393215605760512,-0.950715,0.754379,1.27934,0.601784,-0.011329,-0.79857,-0.00390014,-0.00910796,-0.00201074,0.00704822,-0.00083594,0.00875776,0.0301996,-0.0347394,0.0025133,0.0131739
1413393215655760384,-0.950027,0.753998,1.2763,0.601566,-0.011697,-0.798729,-0.00379541,-0.0069933,0.00118469,0.00587487,-0.000835149,0.00881853,0.0303247,-0.0351509,0.0025194,0.0136884
1413393215705760512,-0.946566,0.750332,1.27762,0.600999,-0.0121306,-0.799147,-0.00409951,-0.00264552,-0.002123,-0.00267183,-0.000849913,0.00889302,0.0304594,-0.0356715,0.00275638,0.0138441
1413393215755760384,-0.943406,0.746907,1.27569,0.600488,-0.0123413,-0.799526,-0.00454365,0.000893505,0.000336226,-0.00581596,-0.000826521,0.00895414,0.0305736,-0.0361288,0.00295201,0.0138505
1413393215805760512,-0.942011,0.745862,1.27225,0.600081,-0.0124769,-0.799828,-0.00473026,0.00565942,-0.00233595,0.00839339,-0.000817748,0.00900912,0.0307065,-0.0365655,0.00307817,0.0141565
1413393215855760384,-0.939753,0.740875,1.26393,0.599841,-0.0126096,-0.800005,-0.00490202,0.00295806,0.000142693,0.0061596,-0.000841083,0.00904459,0.0309115,-0.0369719,0.00313877,0.0142394
1413393215905760512,-0.937978,0.737382,1.24479,0.59976,-0.0129687,-0.800059,-0.00503287,0.00210767,-0.00147431,0.00650714,-0.000826006,0.00908422,0.0310784,-0.0373868,0.00329176,0.0143239
1413393215955760384,-0.936589,0.734413,1.23243,0.599693,-0.0132559,-0.800106,-0.00481898,0.00457794,0.000428815,0.00474741,-0.000785318,0.00912925,0.031266,-0.0378802,0.00345232,0.0145841
1413393216005760512,-0.934656,0.733288,1.21714,0.59978,-0.0132261,-0.800038,-0.00530959,0.00896556,-0.000557051,0.00625447,-0.00082213,0.0091748,0.0314492,-0.0382326,0.0037011,0.0147867
1413393216055760384,-0.932953,0.729984,1.20651,0.599832,-0.0129926,-0.8,-0.00573055,0.000971076,0.00066319,0.00311857,-0.00074927,0.00920079,0.0316057,-0.0386093,0.00409003,0.0149631
1413393216105760512,-0.931135,0.72938,1.1957,0.599745,-0.0131581,-0.800062,-0.00583134,0.000470855,0.000837359,-0.00636966,-0.000738558,0.00924677,0.0317702,-0.0390093,0.00427907,0.015186
1413393216155760384,-0.929658,0.727135,1.17717,0.600166,-0.0131197,-0.799746,-0.00601787,0.00030559,-0.000203297,-0.00167183,-0.000765916,0.00928857,0.0319179,-0.0395438,0.00449194,0.0153208
1413393216205760512,-0.929599,0.72582,1.1629,0.599935,-0.0131115,-0.799918,-0.00614447,-0.000247334,0.00397842,-0.00319268,-0.000716211,0.00933381,0.0320867,-0.0399044,0.00453793,0.0155245
1413393216255760384,-0.928215,0.723211,1.14384,0.598907,-0.0130839,-0.800689,-0.00601741,-0.00664351,0.00530833,0.00265179,-0.000711878,0.00938046,0.0322374,-0.0403049,0.00470845,0.0155574
1413393216305760512,-0.928293,0.721593,1.13699,0.597814,-0.013162,-0.801505,-0.00592685,-0.00240085,-7.44416e-05,0.00086602,-0.000725304,0.00943491,0.0324242,-0.0408729,0.00473252,0.0158877
1413393216355760384,-0.927454,0.720784,1.12647,0.597402,-0.0135915,-0.801806,-0.00579846,0.00640538,0.00731123,-0.00283633,-0.000702625,0.00951653,0.0325286,-0.0412151,0.00472262,0.0159478
1413393216405760512,-0.926732,0.719783,1.12143,0.596926,-0.0135276,-0.802163,-0.00567202,0.00581948,-0.00373937,-0.00802113,-0.00069512,0.00955373,0.0326289,-0.0414657,0.00480415,0.0161176
1413393216455760384,-0.926722,0.719359,1.11912,0.597049,-0.01322,-0.802074,-0.00590919,0.00107468,0.00232388,0.0094712,-0.000717447,0.00957107,0.0327407,-0.0416354,0.00494332,0.0163221
1413393216505760512,-0.926933,0.719708,1.11842,0.595287,-0.0136207,-0.803373,-0.00630638,0.00863137,0.0113619,0.0111363,-0.000673858,0.00957547,0.0328519,-0.041822,0.00502851,0.0165022
1413393216555760384,-0.926318,0.72007,1.11782,0.594615,-0.0141415,-0.803856,-0.00705465,0.00595422,0.0129056,-0.0203884,-0.000689498,0.00958546,0.0329665,-0.0420148,0.00507655,0.0165557
1413393216605760512,-0.925845,0.720622,1.11537,0.594173,-0.0154767,-0.80416,-0.00678308,0.0037378,0.0199207,-0.0132606,-0.000700731,0.00959879,0.033114,-0.0423487,0.00512065,0.0165407
1413393216655760384,-0.925176,0.72022,1.11632,0.594828,-0.015693,-0.803663,-0.00773192,0.00205589,0.0054774,0.0220263,-0.000673052,0.00962333,0.0332359,-0.0426814,0.00518232,0.0164195
1413393216705760512,-0.924502,0.720362,1.11816,0.595466,-0.0152549,-0.80317,-0.0102836,0.0189057,0.0163585,0.033998,-0.000701535,0.00965194,0.033363,-0.0429938,0.00525774,0.01637
1413393216755760384,-0.923441,0.720328,1.12068,0.595659,-0.0150955,-0.802983,-0.0134889,0.0115995,0.0135312,0.0463801,-0.000713032,0.00965914,0.0335033,-0.0432555,0.00525491,0.016232
1413393216805760512,-0.92304,0.720598,1.12408,0.596222,-0.0145926,-0.802524,-0.016194,0.0162811,0.00292385,0.0861188,-0.000716747,0.00969233,0.0336391,-0.0435688,0.00530883,0.0161366
1413393216855760384,-0.920711,0.719369,1.12972,0.597071,-0.0144286,-0.801845,-0.0185259,0.0226582,0.00497747,0.0918519,-0.000715249,0.00971785,0.0337724,-0.0438297,0.00537279,0.0160051
1413393216905760512,-0.919718,0.718278,1.13347,0.598839,-0.0143947,-0.800473,-0.0207031,0.0303276,-0.0076412,0.126963,-0.000714914,0.00974039,0.0339102,-0.0441525,0.00545374,0.015868
1413393216955760384,-0.916001,0.711926,1.14333,0.59887,-0.0133966,-0.800378,-0.0239106,0.0375434,-0.00897787,0.141542,-0.000709994,0.00980437,0.0340287,-0.0445727,0.00551758,0.015619
1413393217005760512,-0.913734,0.706214,1.15303,0.598247,-0.0133341,-0.800775,-0.0261194,0.0518799,-0.0197007,0.159159,-0.000697309,0.00985599,0.0341734,-0.0448958,0.00553926,0.0153789
1413393217055760384,-0.909583,0.700143,1.1667,0.596276,-0.0136212,-0.802203,-0.0272094,0.0597379,-0.0444272,0.225062,-0.000703558,0.00992802,0.0343318,-0.0451414,0.00553408,0.0150348
1413393217105760512,-0.901932,0.686823,1.18199,0.595262,-0.0144775,-0.802913,-0.0280154,0.0734072,-0.0513491,0.2739,-0.00069549,0.00997477,0.0344521,-0.0453711,0.00546282,0.0146764
1413393217155760384,-0.900118,0.676465,1.18163,0.593926,-0.0159508,-0.803861,-0.0283814,0.079906,-0.0743888,0.278533,-0.000680101,0.0100276,0.0346033,-0.0455749,0.00552683,0.0143349
1413393217205760512,-0.885605,0.662327,1.1846,0.593165,-0.0171388,-0.804372,-0.0291021,0.0909371,-0.0887992,0.26627,-0.000638763,0.0100594,0.0347424,-0.0456634,0.00574288,0.0140148
1413393217255760384,-0.907354,0.751704,1.1976,0.593603,-0.00983803,-0.804301,-0.0252792,0.0965025,-0.0942378,0.249029,-0.000676024,0.010092,0.0349094,-0.0456602,0.00750492,0.0142331
1413393217305760512,-0.880662,0.652944,1.1545,0.592743,-0.0178104,-0.804537,-0.0325536,0.104023,-0.11227,0.211173,-0.000593318,0.0101294,0.0350314,-0.0456914,0.00625768,0.0139137
1413393217355760384,-0.89065,0.732513,1.16651,0.592243,-0.00701391,-0.805359,-0.0244421,0.120004,-0.125731,0.177687,-0.000719507,0.01018,0.0351697,-0.0458429,0.00844885,0.0146325
1413393217405760512,-0.88544,0.654702,1.1292,0.59084,-0.0175724,-0.805927,-0.0329051,0.134282,-0.136363,0.163518,-0.000604041,0.0101824,0.0352902,-0.0460877,0.00694465,0.0139033
1413393217455760384,-0.881195,0.670129,1.13101,0.589889,-0.0172902,-0.806639,-0.0326382,0.145494,-0.161433,0.145358,-0.000602692,0.0102453,0.0354375,-0.0464986,0.00723097,0.0137833
1413393217505760512,-0.859712,0.659719,1.15258,0.589444,-0.0160421,-0.806997,-0.0324816,0.147643,-0.183628,0.130751,-0.000619032,0.0102822,0.0355467,-0.0468695,0.00748704,0.013398
1413393217555760384,-0.857233,0.656804,1.15355,0.589542,-0.0154102,-0.806949,-0.0321914,0.170741,-0.184984,0.105275,-0.000654909,0.0103329,0.0356929,-0.047262,0.00754347,0.0130117
1413393217605760512,-0.848771,0.654121,1.15245,0.58981,-0.0131055,-0.806829,-0.0312942,0.173836,-0.218949,0.0850472,-0.000669614,0.0103887,0.0358127,-0.0476357,0.0079761,0.0126428
1413393217655760384,-0.83912,0.644366,1.1603,0.589807,-0.012782,-0.806852,-0.0308997,0.184935,-0.225897,0.091112,-0.000667773,0.0104318,0.0359174,-0.0478457,0.00816397,0.0124241
1413393217705760512,-0.83022,0.632573,1.16996,0.589916,-0.0129673,-0.806754,-0.0313094,0.188225,-0.246596,0.132852,-0.000689285,0.0104803,0.0360541,-0.0481197,0.00833462,0.012211
1413393217755760384,-0.820339,0.619442,1.18356,0.590294,-0.0128681,-0.806491,-0.0309812,0.193746,-0.27766,0.176509,-0.000700464,0.0105616,0.0361803,-0.0483397,0.0085652,0.0120623
1413393217805760512,-0.810364,0.605689,1.20062,0.590163,-0.0129626,-0.806597,-0.0306767,0.199517,-0.283299,0.208077,-0.000686942,0.0105845,0.0362805,-0.0485508,0.008702,0.0118404
1413393217855760384,-0.80032,0.590836,1.21448,0.590224,-0.0138156,-0.806559,-0.0301223,0.206899,-0.296037,0.232116,-0.000732739,0.0106397,0.036424,-0.0486731,0.00903769,0.0117189
1413393217905760512,-0.790245,0.575611,1.23585,0.590382,-0.0138473,-0.806462,-0.0296134,0.20481,-0.321802,0.27053,-0.000723599,0.0107043,0.0365581,-0.0487736,0.0092559,0.0114762
1413393217955760384,-0.77982,0.559408,1.25203,0.591083,-0.0141763,-0.805947,-0.0294965,0.213515,-0.321905,0.291072,-0.000730118,0.0107586,0.0366941,-0.0489761,0.00944882,0.0113637
1413393218005760512,-0.76913,0.542875,1.26866,0.590813,-0.0152888,-0.806164,-0.0283907,0.218911,-0.340693,0.269207,-0.000753145,0.010824,0.036839,-0.0490935,0.00961802,0.0112157
1413393218055760384,-0.758003,0.525523,1.28254,0.591324,-0.0173614,-0.805846,-0.0254212,0.221661,-0.352026,0.218799,-0.000752882,0.0108537,0.0369155,-0.0489803,0.00990566,0.0109907
1413393218105760512,-0.746723,0.508078,1.29134,0.590943,-0.0201218,-0.806158,-0.0221606,0.226592,-0.343297,0.192901,-0.000757334,0.0108929,0.0370633,-0.0490031,0.0101944,0.0107188
1413393218155760384,-0.735217,0.490389,1.29813,0.590961,-0.0240965,-0.806163,-0.0169021,0.228848,-0.361908,0.143353,-0.000770122,0.0109115,0.0372004,-0.0490754,0.0106933,0.0105481
1413393218205760512,-0.72342,0.472446,1.304,0.591289,-0.0277732,-0.80591,-0.0107337,0.239248,-0.357046,0.092296,-0.000752005,0.0109441,0.0372871,-0.0491873,0.0110433,0.0103166
1413393218255760384,-0.711029,0.455227,1.30781,0.590534,-0.0325245,-0.806343,-0.00474593,0.257126,-0.324048,0.0437414,-0.000720957,0.0109669,0.037399,-0.0493544,0.0114022,0.0100845
1413393218305760512,-0.698256,0.438746,1.30786,0.589205,-0.0362715,-0.80717,-0.000109611,0.250419,-0.324328,0.00825114,-0.000784561,0.0110149,0.0375539,-0.049686,0.0119974,0.00990894
1413393218355760384,-0.685361,0.423189,1.30702,0.588963,-0.0360399,-0.807356,0.000263126,0.261003,-0.29438,-0.0313908,-0.000725471,0.0110074,0.0376386,-0.0499719,0.0124868,0.00969283
1413393218405760512,-0.672077,0.408979,1.30872,0.589595,-0.0338652,-0.806977,-0.00442572,0.269867,-0.255586,-0.0567494,-0.000714864,0.0110301,0.0377692,-0.0504013,0.0130151,0.0095357
1413393218455760384,-0.65834,0.395739,1.30595,0.58972,-0.0306302,-0.806969,-0.00965644,0.273458,-0.261144,-0.0862132,-0.000774728,0.0110583,0.0378987,-0.0508971,0.0134591,0.00938323
1413393218505760512,-0.644197,0.383001,1.2987,0.590381,-0.0271203,-0.806534,-0.0148019,0.282819,-0.245503,-0.0804532,-0.00073288,0.0110689,0.0380003,-0.0514973,0.0139408,0.00923996
1413393218555760384,-0.629747,0.370638,1.28995,0.590747,-0.0242365,-0.806235,-0.0204056,0.292234,-0.230423,-0.078849,-0.000726224,0.0110724,0.0381306,-0.0522647,0.0144642,0.00903911
1413393218605760512,-0.615103,0.357992,1.28327,0.591767,-0.0216722,-0.805466,-0.023832,0.292236,-0.262425,-0.0708756,-0.000752121,0.0111096,0.0382311,-0.0529258,0.0149797,0.00881272
1413393218655760384,-0.600216,0.344891,1.27529,0.592414,-0.0199007,-0.804964,-0.0261307,0.303204,-0.257847,-0.0695119,-0.000747132,0.0111286,0.0383126,-0.0537551,0.0155658,0.00864607
1413393218705760512,-0.584875,0.331508,1.26451,0.592475,-0.0204621,-0.804891,-0.0265567,0.31038,-0.258968,-0.0551551,-0.000744775,0.011147,0.0384102,-0.0544847,0.0162127,0.00848937
1413393218755760384,-0.569364,0.317317,1.25369,0.590869,-0.0195523,-0.806067,-0.0273463,0.311938,-0.291649,-0.0501723,-0.000760638,0.0111869,0.0385204,-0.0553739,0.0167707,0.00821276
1413393218805760512,-0.553478,0.302977,1.24974,0.586675,-0.0202938,-0.80915,-0.0260344,0.323443,-0.282576,-0.0463995,-0.000751027,0.011233,0.0386499,-0.0563465,0.0174164,0.00801178
1413393218855760384,-0.537464,0.288475,1.24742,0.57999,-0.0241991,-0.81396,-0.0222492,0.320547,-0.285635,-0.037687,-0.000765509,0.0113174,0.038741,-0.0574015,0.0179873,0.00772762
1413393218905760512,-0.521792,0.273611,1.24343,0.573213,-0.0268973,-0.818759,-0.0183937,0.307033,-0.302305,-0.0355941,-0.000807724,0.0113144,0.0388565,-0.0580482,0.0188634,0.00759211
1413393218955760384,-0.506636,0.259299,1.25266,0.567428,-0.029038,-0.82276,-0.0157719,0.29321,-0.28045,-0.0102111,-0.000807235,0.0113503,0.038915,-0.0587252,0.0197559,0.00745712
1413393219005760512,-0.492321,0.245705,1.26035,0.563747,-0.0310611,-0.825241,-0.0142383,0.267954,-0.270433,0.0103465,-0.000839813,0.0113934,0.0390267,-0.0595089,0.0207074,0.007432
1413393219055760384,-0.479821,0.232119,1.27132,0.561873,-0.0321133,-0.826509,-0.0122707,0.234312,-0.270496,0.0303091,-0.000839935,0.0114451,0.0391136,-0.0602758,0.0214192,0.00710202
1413393219105760512,-0.468804,0.219245,1.28627,0.562268,-0.031875,-0.82625,-0.0122667,0.205104,-0.248724,0.0575987,-0.000828564,0.0114581,0.0392122,-0.0610752,0.0221125,0.0067858
1413393219155760384,-0.459331,0.206918,1.30929,0.563453,-0.0321277,-0.825442,-0.0116027,0.173049,-0.236586,0.0633621,-0.000869236,0.0115241,0.0393076,-0.0620466,0.0227636,0.00646323
1413393219205760512,-0.451117,0.194888,1.32613,0.564307,-0.0318408,-0.824878,-0.0109813,0.145242,-0.232885,0.0791557,-0.000914121,0.0115487,0.0393919,-0.0628324,0.0234971,0.0062049
1413393219255760384,-0.444567,0.183392,1.35203,0.565979,-0.0311228,-0.823764,-0.0105861,0.122668,-0.21798,0.101584,-0.000872379,0.0116079,0.0394826,-0.0636426,0.0242991,0.0058728
1413393219305760512,-0.439188,0.172571,1.37728,0.567131,-0.030379,-0.823005,-0.0100918,0.0948092,-0.19749,0.109594,-0.000903515,0.0116538,0.0396018,-0.0642592,0.0251658,0.00562713
1413393219355760384,-0.434806,0.162211,1.38719,0.567457,-0.0299229,-0.822804,-0.00952727,0.0638905,-0.192318,0.119828,-0.000906937,0.0116797,0.0397006,-0.0649211,0.0260196,0.00537319
1413393219405760512,-0.431813,0.152452,1.39366,0.568023,-0.0300416,-0.822427,-0.00791811,0.0436453,-0.17654,0.117348,-0.000877468,0.0117541,0.0397864,-0.0657278,0.0268561,0.00509837
1413393219455760384,-0.430467,0.143769,1.39725,0.569146,-0.029809,-0.821657,-0.00801387,0.0112078,-0.156924,0.0755283,-0.000908159,0.0118192,0.0398898,-0.0663508,0.027428,0.00473847
1413393219505760512,-0.4303,0.135921,1.39358,0.570141,-0.0293721,-0.820982,-0.00811752,-0.0141262,-0.147755,0.0354904,-0.000935477,0.011888,0.0400393,-0.0671796,0.0281458,0.00458608
1413393219555760384,-0.431627,0.128635,1.39546,0.571719,-0.02893,-0.819902,-0.00789207,-0.0387164,-0.13186,0.00431389,-0.000893249,0.0119345,0.040155,-0.068021,0.0289562,0.00436442
1413393219605760512,-0.433636,0.122163,1.38574,0.573261,-0.0284996,-0.818836,-0.00824783,-0.0495982,-0.117396,0.000966709,-0.000928084,0.0120004,0.0402767,-0.0685966,0.0298304,0.0041281
1413393219655760384,-0.436577,0.115953,1.37855,0.575394,-0.0280723,-0.817356,-0.00794297,-0.0631916,-0.110324,0.0320144,-0.000899592,0.0120519,0.040393,-0.0691133,0.0306131,0.00392512
1413393219705760512,-0.440172,0.110272,1.36739,0.578164,-0.0273231,-0.815418,-0.00859602,-0.0771946,-0.0947831,0.0890993,-0.000891024,0.012138,0.040524,-0.0697786,0.0314555,0.0037596
1413393219755760384,-0.444426,0.104883,1.35176,0.581204,-0.0260434,-0.813284,-0.00959225,-0.0974285,-0.0853897,0.158236,-0.000907559,0.0121926,0.0406265,-0.0703575,0.0324619,0.00365841
1413393219805760512,-0.448814,0.0990976,1.33145,0.584236,-0.0237751,-0.811149,-0.0118442,-0.0792916,-0.0776957,0.207615,-0.000912931,0.0122432,0.0407193,-0.0707674,0.033484,0.00361781
1413393219855760384,-0.453305,0.0943898,1.31865,0.585286,-0.0228508,-0.810413,-0.0122741,-0.0709871,-0.069505,0.314343,-0.00090304,0.0122801,0.0408469,-0.0711123,0.0345432,0.00371192
1413393219905760512,-0.457087,0.0897105,1.30947,0.586649,-0.0214609,-0.809448,-0.0132617,-0.0695633,-0.0711836,0.333942,-0.00092597,0.0123237,0.0409555,-0.0715586,0.0354999,0.00384792
1413393219955760384,-0.4608,0.0863356,1.31518,0.587961,-0.0197935,-0.808513,-0.0147286,-0.0721522,-0.0644162,0.333234,-0.000929987,0.0123433,0.0410483,-0.0720281,0.0365041,0.00396993
1413393220005760512,-0.464227,0.0837,1.32556,0.589093,-0.019053,-0.807701,-0.0150346,-0.0609588,-0.0664248,0.292848,-0.000921926,0.0124033,0.0411747,-0.0724252,0.0375292,0.00417615
1413393220055760384,-0.46706,0.0819914,1.3394,0.590405,-0.0184543,-0.806746,-0.0155776,-0.0384459,-0.0718712,0.239219,-0.000953147,0.0124292,0.0412786,-0.0728122,0.0386548,0.00445625
1413393220105760512,-0.469024,0.0810844,1.36429,0.591079,-0.0182713,-0.806254,-0.0157063,-0.0323467,-0.0684769,0.216969,-0.000954229,0.0124626,0.0413835,-0.0732551,0.0398207,0.00476315
1413393220155760384,-0.470712,0.0799123,1.38598,0.591539,-0.0176295,-0.805919,-0.0163,-0.0237509,-0.077736,0.200418,-0.000930052,0.0124948,0.0414884,-0.0737442,0.0409918,0.00507192
1413393220205760512,-0.472004,0.0785006,1.41429,0.592188,-0.0168087,-0.805448,-0.0168937,-0.0203441,-0.0816617,0.227004,-0.000928904,0.0125187,0.041589,-0.0741426,0.0421319,0.00542354
1413393220255760384,-0.472799,0.0765996,1.4388,0.592727,-0.0173924,-0.805039,-0.0168788,-0.0156225,-0.0750733,0.230169,-0.000927415,0.0125658,0.0416432,-0.0746607,0.0429902,0.00576208
1413393220305760512,-0.473409,0.0742927,1.46065,0.593081,-0.0163321,-0.804778,-0.0179323,-0.00478385,-0.0940928,0.238978,-0.000919679,0.0125888,0.0417833,-0.0749259,0.0439967,0.00608934
1413393220355760384,-0.473448,0.0715103,1.48844,0.593568,-0.0162652,-0.804427,-0.0176327,0.00148276,-0.0969913,0.246048,-0.000905652,0.0126137,0.0419146,-0.0752287,0.045055,0.00643345
1413393220405760512,-0.473057,0.0683283,1.50964,0.5935,-0.016671,-0.804469,-0.0176159,0.0111999,-0.0940477,0.263027,-0.00088166,0.0126604,0.0419899,-0.0755062,0.0461924,0.00672415
1413393220455760384,-0.472044,0.0651629,1.53741,0.592734,-0.0167956,-0.805029,-0.0177066,0.0259425,-0.114121,0.258938,-0.000884939,0.0126642,0.0420869,-0.0757421,0.0472196,0.00707267
1413393220505760512,-0.470297,0.0618472,1.56262,0.590824,-0.0170349,-0.806437,-0.0172062,0.0304576,-0.116216,0.244833,-0.00090022,0.0126993,0.0421934,-0.0761219,0.0478917,0.00749619
1413393220555760384,-0.468028,0.0594141,1.58829,0.58908,-0.0175189,-0.807713,-0.0166895,0.0422928,-0.111217,0.203366,-0.000931429,0.0126615,0.0421657,-0.0760005,0.0489083,0.00774797
1413393220605760512,-0.465524,0.0574896,1.603,0.588155,-0.0176879,-0.808388,-0.0164342,0.0356806,-0.124692,0.142387,-0.000944096,0.0127424,0.0423143,-0.0762279,0.0498754,0.00802433
1413393220655760384,-0.463611,0.0538662,1.61576,0.588746,-0.0172295,-0.807972,-0.0161924,0.0340876,-0.128478,0.0826404,-0.000959892,0.012744,0.0424051,-0.0763916,0.0505445,0.0083165
1413393220705760512,-0.461449,0.0496782,1.62617,0.589191,-0.0180167,-0.807643,-0.0155748,0.0449913,-0.112452,0.0268939,-0.000918907,0.0127964,0.0424913,-0.0766851,0.0515436,0.00843825
1413393220755760384,-0.459388,0.044388,1.62385,0.588896,-0.0196641,-0.807869,-0.0127976,0.0356753,-0.135952,-0.0264538,-0.000956799,0.0127842,0.0425473,-0.0768618,0.0525081,0.0086846
1413393220805760512,-0.457111,0.0381139,1.62132,0.586748,-0.0219567,-0.809424,-0.00889558,0.0453535,-0.126661,-0.0218878,-0.000948784,0.0128215,0.0426009,-0.0770138,0.0533754,0.00885599
1413393220855760384,-0.45464,0.0319803,1.62737,0.585223,-0.0252623,-0.810463,-0.00509689,0.0508057,-0.0965718,0.0270702,-0.000971296,0.0128635,0.0426606,-0.0771635,0.053942,0.0088681
1413393220905760512,-0.452114,0.0264983,1.63075,0.584248,-0.0267005,-0.811132,-0.0026118,0.0564845,-0.116926,0.0784454,-0.000961561,0.0128925,0.0427537,-0.0770024,0.0548281,0.00883634
1413393220955760384,-0.449714,0.0214133,1.63806,0.583115,-0.0274529,-0.811925,-0.00131052,0.0481217,-0.0871696,0.183715,-0.00097227,0.01291,0.042831,-0.0768046,0.0557099,0.00885863
1413393221005760512,-0.447018,0.0174515,1.64742,0.583639,-0.0282229,-0.811519,-0.002574,0.0426718,-0.0486657,0.20944,-0.000972478,0.0129145,0.0429226,-0.0765302,0.0565886,0.00880869
1413393221055760384,-0.444737,0.0142463,1.6602,0.583162,-0.0284098,-0.811853,-0.00323534,0.039599,-0.0598251,0.239992,-0.000986182,0.0129641,0.0430157,-0.07617,0.057308,0.00860052
1413393221105760512,-0.442476,0.0119146,1.67808,0.582137,-0.0283712,-0.812589,-0.00340463,0.0324268,-0.0370783,0.253511,-0.000983204,0.0129818,0.0430938,-0.0757519,0.0581806,0.0084276
1413393221155760384,-0.439683,0.0106186,1.70455,0.581688,-0.0287116,-0.812893,-0.00459297,0.0364835,-0.013343,0.271024,-0.000996533,0.0129997,0.0431746,-0.0752188,0.0590996,0.0082332
1413393221205760512,-0.436738,0.0109587,1.73866,0.580452,-0.0283989,-0.813777,-0.00603067,0.0204169,-0.0213618,0.277736,-0.000993749,0.0130167,0.0432962,-0.0750003,0.060251,0.00815675
1413393221255760384,-0.379723,-0.00276132,2.02806,0.57913,-0.0201543,-0.814986,-0.000387737,0.0155438,0.000285333,0.273726,-0.00111491,0.013026,0.0434075,-0.0746418,0.0671928,0.00812383
1413393221305760512,-0.374308,-0.00122335,2.09637,0.577475,-0.0182149,-0.816203,-0.00212156,0.00784324,0.0221855,0.259239,-0.00115351,0.0130351,0.0435006,-0.0744152,0.0690398,0.00809935
1413393221355760384,-0.375975,-0.000663642,2.08756,0.575754,-0.0180434,-0.817421,-0.00245358,-0.011114,0.0121962,0.294422,-0.00116328,0.0130565,0.0435714,-0.0740981,0.0699058,0.0078016
1413393221405760512,-0.376601,0.0027469,2.11788,0.574312,-0.0164935,-0.818464,-0.00323157,-0.0259492,0.0239603,0.296905,-0.00115141,0.0130931,0.043639,-0.0736539,0.0708957,0.00797547
1413393221455760384,-0.377953,0.00203414,2.1237,0.573875,-0.0157476,-0.818771,-0.00578433,-0.0400935,0.0380485,0.276257,-0.00117116,0.0130997,0.0437565,-0.0734173,0.0716547,0.00755676
1413393221505760512,-0.380274,0.00391405,2.14376,0.573126,-0.0149267,-0.819301,-0.00706362,-0.0553025,0.027757,0.211875,-0.00115244,0.0131197,0.0438113,-0.0732154,0.0724288,0.00753327
1413393221555760384,-0.383611,0.00532413,2.15754,0.572472,-0.0128607,-0.819764,-0.00993285,-0.0679418,0.0329381,0.161206,-0.00113472,0.0131664,0.0438957,-0.0729574,0.0734208,0.00734884
1413393221605760512,-0.388201,0.00699266,2.16582,0.572586,-0.0116098,-0.819679,-0.0117189,-0.0955159,0.0318856,0.142911,-0.00111252,0.0131593,0.0439511,-0.0725632,0.0741309,0.00713024
1413393221655760384,-0.393849,0.00849983,2.17049,0.573185,-0.0104198,-0.819261,-0.0127104,-0.113732,0.0129641,0.14786,-0.00111041,0.0131428,0.0439756,-0.0718074,0.0749331,0.00683819
1413393221705760512,-0.3997,0.00916136,2.1772,0.576303,-0.00968626,-0.817071,-0.0132948,-0.121881,0.0179182,0.160511,-0.00111673,0.0131788,0.0440951,-0.0716975,0.0753893,0.00679979
1413393221755760384,-0.405823,0.00964493,2.18006,0.579896,-0.00985082,-0.814534,-0.0125815,-0.129017,0.00874262,0.15505,-0.00109724,0.0133241,0.044333,-0.0716765,0.0760312,0.00692141
1413393221805760512,-0.412306,0.00967642,2.18907,0.583122,-0.00895871,-0.812247,-0.0120284,-0.129062,-0.0111583,0.161482,-0.00105461,0.0132711,0.0443761,-0.0709992,0.0765892,0.00676605
1413393221855760384,-0.41882,0.0094621,2.19831,0.585134,-0.00808067,-0.810805,-0.0122121,-0.125177,0.00346902,0.155067,-0.00103247,0.0132087,0.0443609,-0.0702619,0.0771815,0.00662875
1413393221905760512,-0.425226,0.00900674,2.20727,0.586294,-0.00819305,-0.809977,-0.0113806,-0.125239,-0.0189335,0.145651,-0.00101421,0.0132249,0.0444592,-0.0699703,0.0776684,0.00653244
1413393221955760384,-0.431528,0.00776452,2.21996,0.587841,-0.00792533,-0.808881,-0.00960544,-0.121553,-0.0211667,0.12577,-0.000926447,0.0134515,0.0447762,-0.0705389,0.0785319,0.00684728
1413393222005760512,-0.437504,0.00665587,2.22949,0.587835,-0.00791576,-0.808889,-0.00926787,-0.116586,-0.00589919,0.0767035,-0.000829373,0.0135775,0.0449345,-0.0705181,0.0794742,0.00717581
1413393222055760384,-0.443254,0.00558972,2.22773,0.588496,-0.00792857,-0.808418,-0.00840908,-0.112797,-0.0234265,0.0191852,-0.000766652,0.0136486,0.0450347,-0.0705796,0.0802408,0.00750663
1413393222105760512,-0.448805,0.00412053,2.22846,0.589101,-0.00762505,-0.807994,-0.00690482,-0.119441,-0.033652,-0.0417547,-0.000764484,0.0136623,0.0450705,-0.0704109,0.0805785,0.00753224
1413393222155760384,-0.454897,0.00266324,2.22505,0.589095,-0.00685388,-0.808007,-0.00671787,-0.118054,-0.0203839,-0.0974337,-0.000712826,0.0137118,0.0451535,-0.0703957,0.0809615,0.00761649
1413393222205760512,-0.460612,0.00121588,2.22097,0.588959,-0.0063229,-0.808112,-0.00650306,-0.11176,-0.0292637,-0.158285,-0.000698822,0.013757,0.045254,-0.0704252,0.0811851,0.00759834
1413393222255760384,-0.466012,-0.000405103,2.21436,0.587743,-0.00588204,-0.809007,-0.00551727,-0.104408,-0.0396587,-0.211288,-0.000688658,0.0138136,0.0453629,-0.0706644,0.0814279,0.00760415
1413393222305760512,-0.471053,-0.00202513,2.21036,0.585354,-0.00517646,-0.810741,-0.00575295,-0.10102,-0.0241315,-0.243266,-0.000677068,0.013848,0.0455054,-0.0710601,0.0815233,0.00744163
1413393222355760384,-0.475963,-0.00365526,2.20391,0.581191,-0.00509164,-0.813732,-0.00559287,-0.103381,-0.0368052,-0.243021,-0.000697447,0.0138402,0.0455612,-0.0714458,0.0816642,0.00699575
1413393222405760512,-0.481048,-0.00560173,2.19454,0.57713,-0.0047805,-0.816625,-0.00475573,-0.109622,-0.0455913,-0.225433,-0.000762888,0.0138814,0.0456383,-0.0719877,0.0819487,0.00660003
1413393222455760384,-0.486594,-0.00751053,2.20259,0.573806,-0.00336864,-0.818961,-0.00616707,-0.116812,-0.0364767,-0.199513,-0.000810834,0.0139475,0.0457091,-0.0724349,0.08229,0.0057655
1413393222505760512,-0.492759,-0.00966728,2.20088,0.571028,-0.00361673,-0.820907,-0.00512142,-0.1365,-0.0498275,-0.168441,-0.000836227,0.0140219,0.045828,-0.0730097,0.0829274,0.00535118
1413393222555760384,-0.499071,-0.0121912,2.16662,0.56988,-0.00446965,-0.821713,-0.00223993,-0.139916,-0.0559779,-0.105423,-0.000852038,0.0141522,0.0459186,-0.07355,0.0837363,0.00493265
1413393222605760512,-0.505882,-0.0145614,2.12669,0.568812,-0.00438841,-0.822455,-0.00162305,-0.167657,-0.0464358,-0.0727415,-0.000859738,0.0142693,0.0460273,-0.07375,0.0844303,0.00412275
1413393222655760384,-0.51431,-0.0170121,2.1148,0.567288,-0.00448025,-0.823507,-0.00074762,-0.195175,-0.0520617,-0.0106033,-0.000875112,0.0143298,0.0460505,-0.0735975,0.0848924,0.0033989
1413393222705760512,-0.524443,-0.0194645,2.11392,0.567487,-0.00314895,-0.823375,-0.00148304,-0.216859,-0.0548142,0.039438,-0.000901597,0.0143803,0.0461061,-0.0731658,0.0850963,0.00291776
1413393222755760384,-0.535821,-0.0221146,2.1242,0.565918,-0.00355531,-0.824454,-0.000113551,-0.241029,-0.0506168,0.0733077,-0.000907342,0.0143531,0.0461724,-0.0725541,0.0849289,0.00259288
1413393222805760512,-0.548558,-0.0248466,2.14213,0.564046,-0.00356793,-0.825736,0.000546773,-0.26671,-0.0533491,0.122946,-0.000898056,0.0143232,0.0462471,-0.0717354,0.0845751,0.00265519
1413393222855760384,-0.562093,-0.0276813,2.14661,0.561943,-0.00327406,-0.827169,0.00115259,-0.284618,-0.0539866,0.150512,-0.000900592,0.0143216,0.0463023,-0.070825,0.0842504,0.00249859
1413393222905760512,-0.576539,-0.0307959,2.11637,0.560738,-0.00320927,-0.827983,0.00275488,-0.31143,-0.0531948,0.189026,-0.000869359,0.0143193,0.0463439,-0.0700825,0.0836821,0.00234273
1413393222955760384,-0.592561,-0.0336666,2.09945,0.559019,-0.00233791,-0.829144,0.00351285,-0.344865,-0.0525902,0.233076,-0.000865934,0.0143376,0.0464151,-0.0696003,0.0835375,0.00224831
1413393223005760512,-0.608761,-0.0370343,1.9821,0.559998,-0.000684181,-0.828489,0.00301771,-0.36146,-0.0504053,0.242066,-0.000835383,0.0142708,0.0464925,-0.0677585,0.082258,0.0028356
1413393223055760384,-0.626842,-0.0403281,1.92187,0.561897,0.000585037,-0.827199,0.00356896,-0.388797,-0.0522413,0.26088,-0.000791311,0.0142179,0.0465683,-0.0661861,0.08102,0.00303965
1413393223105760512,-0.645993,-0.0433787,1.86338,0.563553,0.0013598,-0.826068,0.00427165,-0.41225,-0.0433348,0.261035,-0.000810737,0.0141387,0.0466491,-0.0645289,0.0796529,0.00302481
1413393223155760384,-0.666998,-0.0457191,1.86609,0.565054,0.00259842,-0.825044,0.00299023,-0.437894,-0.0441477,0.26373,-0.000791124,0.0141008,0.0466706,-0.0637396,0.0796456,0.00207785
1413393223205760512,-0.689218,-0.0482094,1.87949,0.566752,0.00511669,-0.823871,0.001716,-0.454924,-0.05217,0.26962,-0.000791676,0.01406,0.0467186,-0.0629925,0.0794901,0.00107699
1413393223255760384,-0.71239,-0.0506505,1.89413,0.567771,0.00638219,-0.823162,0.000587738,-0.470269,-0.0462465,0.231732,-0.000815178,0.0140363,0.0467504,-0.062786,0.0797286,0.000794549
1413393223305760512,-0.736265,-0.0534672,1.9045,0.569313,0.00658583,-0.822094,0.000743815,-0.486232,-0.0623117,0.197087,-0.000841483,0.0140287,0.0467596,-0.0625268,0.0798569,0.000483657
1413393223355760384,-0.760953,-0.0566339,1.91288,0.570196,0.00732261,-0.821476,6.88828e-05,-0.502388,-0.0673458,0.114615,-0.000864569,0.0140161,0.0467857,-0.0622767,0.0799909,0.000243221
1413393223405760512,-0.786267,-0.0600486,1.91599,0.571728,0.00768789,-0.820408,-6.33772e-05,-0.509183,-0.0724609,0.0144921,-0.000864568,0.0140162,0.0467859,-0.0619843,0.0800623,-4.3621e-05
1413393223455760384,-0.812354,-0.0633869,1.93344,0.573624,0.00831132,-0.819076,-0.00116338,-0.519836,-0.076731,-0.101627,-0.00100352,0.0140279,0.0468027,-0.0616271,0.0804151,0.000193614
1413393223505760512,-0.838427,-0.0673384,1.9256,0.57621,0.00865539,-0.817254,-0.00188656,-0.525766,-0.0809384,-0.201782,-0.00100346,0.0140281,0.046803,-0.0613048,0.0804561,-0.000105786
1413393223555760384,-0.864844,-0.0715469,1.92174,0.57883,0.00799335,-0.815407,-0.001893,-0.532606,-0.0898032,-0.282276,-0.0010483,0.014032,0.0468229,-0.0609242,0.0805698,-7.88841e-05
1413393223605760512,-0.89135,-0.0759238,1.91064,0.581379,0.00769978,-0.813591,-0.00297897,-0.519868,-0.089555,-0.355041,-0.00107452,0.0140385,0.0468374,-0.0605295,0.0806407,-0.00015763
1413393223655760384,-0.917263,-0.0803972,1.90529,0.583392,0.00694662,-0.81215,-0.00431951,-0.516641,-0.0964545,-0.389383,-0.00112061,0.0140527,0.046875,-0.0601633,0.0808522,9.07049e-05
1413393223705760512,-0.943098,-0.085197,1.90673,0.584285,0.00567369,-0.811511,-0.00539758,-0.50978,-0.104178,-0.366987,-0.00113665,0.0140655,0.0469227,-0.0600098,0.0812672,0.000319393
1413393223755760384,-0.968443,-0.0905443,1.89581,0.58504,0.00438608,-0.810967,-0.00656382,-0.511601,-0.114884,-0.295991,-0.0011605,0.0140952,0.0469688,-0.0597907,0.081688,0.000660715
1413393223805760512,-0.993278,-0.0963997,1.88697,0.586075,0.00243182,-0.810221,-0.00721884,-0.503678,-0.134804,-0.241265,-0.00119638,0.0141611,0.046978,-0.059832,0.0826542,0.000137463
1413393223855760384,-1.01803,-0.103166,1.87802,0.584853,0.000739326,-0.811099,-0.00814137,-0.482342,-0.146629,-0.14734,-0.00120904,0.0142038,0.0470394,-0.0596859,0.0832972,-0.000133819
1413393223905760512,-1.04222,-0.110421,1.87329,0.585045,-4.38937e-05,-0.810927,-0.0109752,-0.500906,-0.152541,-0.0817431,-0.00124299,0.01425,0.0471101,-0.0594019,0.0838753,-0.000519085
1413393223955760384,-1.06712,-0.118377,1.89685,0.584617,-0.00168405,-0.811215,-0.0123087,-0.497744,-0.173348,-0.0234285,-0.00130355,0.0142652,0.0471559,-0.0591957,0.0846068,-0.00126469
1413393224005760512,-1.09186,-0.127091,1.90593,0.585492,-0.00330667,-0.810564,-0.0132249,-0.49577,-0.183493,0.00953105,-0.00135783,0.0142663,0.0472425,-0.0587418,0.0849524,-0.00170013
1413393224055760384,-1.1163,-0.136356,1.89308,0.584778,-0.00587919,-0.811065,-0.0131745,-0.494544,-0.190946,0.000231775,-0.0013591,0.0143006,0.0473865,-0.0584842,0.0853803,-0.00156154
1413393224105760512,-1.14077,-0.14576,1.90419,0.585918,-0.00789967,-0.810221,-0.013434,-0.482573,-0.208144,-0.0480213,-0.00133451,0.014392,0.0475183,-0.0582854,0.0868939,-0.00170227
1413393224155760384,-1.16483,-0.156079,1.93632,0.586341,-0.00878115,-0.809892,-0.0142594,-0.471883,-0.212991,-0.0799256,-0.00131353,0.0143728,0.0476443,-0.0575982,0.0862736,-0.00110334
1413393224205760512,-1.18827,-0.166778,1.95649,0.586466,-0.00847845,-0.809784,-0.0153572,-0.457673,-0.222978,-0.148844,-0.00130959,0.0143904,0.047779,-0.0570147,0.0860436,-0.000791862
1413393224255760384,-1.21089,-0.178045,1.9394,0.587568,-0.00886674,-0.80895,-0.0168807,-0.453224,-0.231015,-0.183189,-0.00126976,0.0143742,0.0479257,-0.0562836,0.0852513,-8.62764e-05
1413393224305760512,-1.23258,-0.189907,1.89688,0.58923,-0.00996742,-0.807724,-0.0170594,-0.438769,-0.238963,-0.251664,-0.00125173,0.0144113,0.0480395,-0.0560155,0.0850858,4.73143e-05
1413393224355760384,-1.2542,-0.202049,1.86259,0.589619,-0.00936819,-0.807426,-0.0180337,-0.442697,-0.240882,-0.305728,-0.00124519,0.014431,0.04814,-0.055506,0.0847892,0.00015612
1413393224405760512,-1.27543,-0.214298,1.80783,0.589502,-0.0110671,-0.807461,-0.0192937,-0.442529,-0.23999,-0.351008,-0.00122413,0.0144668,0.0482598,-0.0551811,0.0842535,0.000503433
1413393224455760384,-1.29582,-0.227039,1.68984,0.590638,-0.0147201,-0.806559,-0.0198122,-0.437702,-0.25355,-0.399326,-0.00118462,0.0144785,0.0483459,-0.0546039,0.0837121,0.000779097
1413393224505760512,-1.31532,-0.239937,1.54135,0.591069,-0.0197872,-0.806114,-0.0206757,-0.4251,-0.249046,-0.448633,-0.00115196,0.0145019,0.0484388,-0.0542717,0.083392,0.000995769
1413393224555760384,-1.33539,-0.252496,1.46003,0.590919,-0.0273491,-0.806008,-0.0204756,-0.419124,-0.250053,-0.481744,-0.00111577,0.0145251,0.0485435,-0.0539863,0.0832155,0.00100851
1413393224605760512,-1.35504,-0.265082,1.37144,0.591966,-0.0351025,-0.804908,-0.0216196,-0.406718,-0.24513,-0.498215,-0.00109464,0.014569,0.0486219,-0.0538253,0.0829764,0.00109417
1413393224655760384,-1.37451,-0.277288,1.29422,0.592067,-0.0439894,-0.804357,-0.0230768,-0.389194,-0.230852,-0.455848,-0.00106808,0.0145867,0.0486807,-0.0533726,0.0827913,0.00112789
1413393224705760512,-1.39236,-0.289153,1.24125,0.59036,-0.052459,-0.805038,-0.0252642,-0.354795,-0.236735,-0.452233,-0.00103769,0.0146077,0.0487825,-0.0529735,0.0826245,0.00143916
1413393224755760384,-1.40989,-0.300294,1.23265,0.588644,-0.0614754,-0.805601,-0.0269524,-0.342081,-0.218352,-0.435121,-0.00100757,0.0146362,0.0488526,-0.0527022,0.0826204,0.00165428
1413393224805760512,-1.42628,-0.310836,1.23516,0.587147,-0.0696785,-0.805874,-0.0311703,-0.296821,-0.193695,-0.413834,-0.000967592,0.0146698,0.0489385,-0.0525363,0.0826235,0.00194838
1413393224855760384,-1.44143,-0.320435,1.27015,0.585515,-0.0781746,-0.806148,-0.0344542,-0.280869,-0.198846,-0.359415,-0.000943555,0.0147264,0.0490083,-0.0522198,0.0828559,0.00227436
1413393224905760512,-1.45728,-0.329363,1.37637,0.58496,-0.0842529,-0.805786,-0.0378509,-0.279588,-0.18019,-0.295606,-0.000897326,0.0147487,0.0490596,-0.0518341,0.0830698,0.00264583
1413393224955760384,-1.47133,-0.337998,1.44104,0.583343,-0.0900666,-0.806185,-0.0408036,-0.248511,-0.15413,-0.226671,-0.000851514,0.0147865,0.0491624,-0.0516166,0.0834175,0.0030346
1413393225005760512,-1.48265,-0.346088,1.35746,0.58195,-0.0934808,-0.806596,-0.0447116,-0.253581,-0.162767,-0.147185,-0.000848196,0.0148125,0.0492196,-0.051425,0.0838623,0.00327457
1413393225055760384,-1.49457,-0.354029,1.28437,0.580511,-0.0951499,-0.80722,-0.0484767,-0.260794,-0.144618,-0.125305,-0.000815094,0.0148447,0.0493069,-0.051256,0.0842701,0.00359751
1413393225105760512,-1.50775,-0.360486,1.25284,0.579461,-0.097306,-0.807525,-0.0515889,-0.263215,-0.115017,-0.0504166,-0.000801893,0.014857,0.0493604,-0.0509642,0.0847265,0.00378655
1413393225155760384,-1.52087,-0.366539,1.24256,0.579228,-0.0984611,-0.807378,-0.0542386,-0.267868,-0.126806,-0.0635021,-0.000770883,0.0148898,0.0494304,-0.0506791,0.0851928,0.00403144
1413393225205760512,-1.53396,-0.372443,1.23063,0.578499,-0.10018,-0.807684,-0.0543062,-0.270595,-0.109126,-0.0476196,-0.000751498,0.0149002,0.0494925,-0.0506315,0.0856367,0.00417947
1413393225255760384,-1.5472,-0.377569,1.23288,0.577545,-0.100824,-0.808153,-0.05626,-0.261885,-0.0956499,-0.0341321,-0.000718582,0.0149245,0.0495537,-0.0505687,0.0859833,0.00433655
1413393225305760512,-1.56106,-0.38211,1.28621,0.576464,-0.102718,-0.808611,-0.0573318,-0.266865,-0.0970081,-0.055089,-0.000727305,0.0149888,0.0496059,-0.0508184,0.0866458,0.00473145
1413393225355760384,-1.57464,-0.385945,1.30554,0.576147,-0.105429,-0.808312,-0.0597635,-0.25619,-0.0679497,-0.0303924,-0.00071027,0.0150059,0.0496652,-0.0506896,0.0869547,0.00469365
1413393225405760512,-1.58812,-0.389009,1.33492,0.575043,-0.111548,-0.8082,-0.0607989,-0.267054,-0.0514519,-0.00663513,-0.000697384,0.0149893,0.0497486,-0.0507131,0.0872778,0.00456791
1413393225455760384,-1.60238,-0.391164,1.35521,0.573579,-0.118243,-0.808125,-0.0629283,-0.284978,-0.0429295,0.00952728,-0.000699503,0.0150008,0.0498027,-0.0506533,0.0875981,0.00444672
1413393225505760512,-1.6166,-0.392448,1.3695,0.57305,-0.127365,-0.806917,-0.0654028,-0.273408,-0.0114511,0.0238444,-0.000694564,0.0149939,0.0498503,-0.0509446,0.0878401,0.00420578
1413393225555760384,-1.63035,-0.392639,1.36763,0.570752,-0.137288,-0.806587,-0.0693713,-0.265532,0.00399622,0.035963,-0.000709418,0.0150119,0.0498887,-0.0511294,0.0881069,0.00400665
1413393225605760512,-1.64397,-0.391648,1.35796,0.569294,-0.148693,-0.805153,-0.074323,-0.284479,0.0306681,0.067586,-0.000724842,0.0150103,0.0499138,-0.0514021,0.0883935,0.00383405
1413393225655760384,-1.65779,-0.389253,1.36171,0.568651,-0.160306,-0.802757,-0.080747,-0.271532,0.0648918,0.0771502,-0.000739968,0.0150082,0.0499334,-0.0516955,0.0886612,0.00374669
1413393225705760512,-1.67088,-0.385565,1.36387,0.5675,-0.17225,-0.800239,-0.0888377,-0.263713,0.0894394,0.0998307,-0.000764867,0.0150075,0.0499438,-0.0519123,0.0888876,0.00381061
1413393225755760384,-1.68388,-0.380778,1.36812,0.566311,-0.182646,-0.797527,-0.0994149,-0.266914,0.0989886,0.103937,-0.000781901,0.0149919,0.0499616,-0.0522706,0.0891505,0.00381659
1413393225805760512,-1.69641,-0.37485,1.37311,0.565246,-0.192795,-0.794357,-0.111012,-0.243648,0.131679,0.128113,-0.000789038,0.0149809,0.0499729,-0.052424,0.0893381,0.00379978
1413393225855760384,-1.70794,-0.368321,1.37776,0.562928,-0.202717,-0.791424,-0.125166,-0.225692,0.135972,0.0675097,-0.000801411,0.0149815,0.049985,-0.0526939,0.0896329,0.00373857
1413393225905760512,-1.71896,-0.361656,1.36498,0.561619,-0.211162,-0.788099,-0.137459,-0.220432,0.135283,-0.0273573,-0.000809722,0.0149828,0.0500075,-0.052968,0.0899932,0.00352748
1413393225955760384,-1.73006,-0.354692,1.36121,0.558598,-0.220071,-0.785162,-0.151848,-0.225672,0.141971,-0.13532,-0.000822218,0.0149863,0.0500178,-0.0531659,0.0903068,0.00329587
1413393226005760512,-1.74114,-0.347657,1.35636,0.556763,-0.228704,-0.78135,-0.164932,-0.221442,0.13603,-0.210824,-0.000836813,0.0150052,0.0500387,-0.053239,0.090526,0.00362633
1413393226055760384,-1.75235,-0.341119,1.34382,0.555286,-0.239079,-0.776885,-0.175924,-0.225372,0.12705,-0.229436,-0.000838794,0.0150221,0.050052,-0.0534082,0.0908381,0.00362474
1413393226105760512,-1.76363,-0.335554,1.33065,0.553929,-0.249932,-0.772658,-0.183565,-0.229955,0.102393,-0.225488,-0.000827285,0.0150548,0.050062,-0.0536516,0.0912846,0.00362467
1413393226155760384,-1.77521,-0.330349,1.32,0.553196,-0.260973,-0.768034,-0.189714,-0.235757,0.0998589,-0.18955,-0.000838915,0.0150679,0.0500833,-0.0538843,0.0916057,0.0037623
1413393226205760512,-1.787,-0.32577,1.31335,0.5518,-0.271388,-0.764011,-0.195328,-0.236848,0.0763239,-0.126019,-0.000842464,0.015079,0.0500935,-0.0538966,0.0918475,0.00379414
1413393226255760384,-1.79969,-0.321465,1.33402,0.550137,-0.281178,-0.76089,-0.198331,-0.256784,0.0798352,-0.0562604,-0.000864754,0.0151328,0.0501368,-0.0542276,0.0924461,0.0038609
1413393226305760512,-1.81189,-0.317314,1.32079,0.54877,-0.289378,-0.757993,-0.201393,-0.241823,0.0796088,-0.0419797,-0.000858244,0.0151424,0.0501612,-0.0540946,0.0925977,0.00417036
1413393226355760384,-1.82493,-0.313255,1.35633,0.54641,-0.297885,-0.756407,-0.201369,-0.254265,0.0765991,-0.00455832,-0.000858615,0.0151932,0.050176,-0.0543183,0.0931827,0.00423109
1413393226405760512,-1.83812,-0.309122,1.41337,0.542627,-0.304218,-0.756355,-0.202324,-0.247948,0.0815339,-0.016508,-0.000872347,0.0152771,0.0501958,-0.0546038,0.0940589,0.00405766
1413393226455760384,-1.85013,-0.304826,1.40921,0.53838,-0.310352,-0.757009,-0.201909,-0.250721,0.0880478,-0.0473141,-0.000867864,0.0153,0.0502722,-0.0542596,0.0942959,0.00446459
1413393226505760512,-1.86306,-0.300001,1.43124,0.534705,-0.315257,-0.757727,-0.201382,-0.26202,0.0991646,-0.101744,-0.000859298,0.0153048,0.0503304,-0.0539133,0.0944366,0.00466742
1413393226555760384,-1.8762,-0.294682,1.4307,0.532332,-0.319175,-0.757964,-0.200601,-0.265634,0.111936,-0.143343,-0.000859543,0.0153147,0.0503531,-0.0539233,0.0946572,0.00466068
1413393226605760512,-1.88909,-0.288625,1.40906,0.529879,-0.32241,-0.758467,-0.200022,-0.2645,0.13411,-0.174586,-0.000847398,0.0153303,0.0503873,-0.0539249,0.09487,0.00487133
1413393226655760384,-1.90252,-0.281456,1.3955,0.52859,-0.324137,-0.758386,-0.200944,-0.276296,0.154569,-0.158201,-0.000859577,0.0154037,0.0504379,-0.0541586,0.0953563,0.00478868
1413393226705760512,-1.91726,-0.273068,1.40823,0.528692,-0.321527,-0.758,-0.206255,-0.29147,0.176562,-0.151552,-0.000900296,0.0155263,0.0504775,-0.0547858,0.0963949,0.0039806
1413393226755760384,-1.93158,-0.263674,1.38857,0.529823,-0.318576,-0.75685,-0.212075,-0.291447,0.201868,-0.128473,-0.000879678,0.0155479,0.0505025,-0.0547179,0.0965792,0.00407643
1413393226805760512,-1.9464,-0.253792,1.36674,0.529848,-0.315329,-0.756735,-0.217211,-0.318361,0.196104,-0.109328,-0.00092122,0.0156134,0.0505864,-0.0546821,0.096857,0.00400774
1413393226855760384,-1.96199,-0.243723,1.34591,0.530136,-0.312368,-0.756805,-0.220518,-0.324957,0.202613,-0.126135,-0.000914478,0.0156384,0.0506293,-0.0546146,0.0970077,0.00400886
1413393226905760512,-1.97737,-0.233591,1.29178,0.529448,-0.309204,-0.757425,-0.224469,-0.334151,0.204352,-0.106052,-0.000844504,0.0156132,0.0507605,-0.0538384,0.0966111,0.00474027
1413393226955760384,-1.99449,-0.22359,1.27822,0.529181,-0.307482,-0.757878,-0.22593,-0.357006,0.19528,-0.0838147,-0.000856711,0.0156481,0.0508076,-0.0538723,0.096754,0.00450539
1413393227005760512,-2.01221,-0.213904,1.25706,0.529126,-0.305889,-0.758327,-0.226713,-0.366546,0.192643,-0.0773007,-0.000848395,0.0156846,0.0508714,-0.0537712,0.0968731,0.00438052
1413393227055760384,-2.03051,-0.204382,1.22926,0.529951,-0.305352,-0.758012,-0.226564,-0.383048,0.190574,-0.0650709,-0.000823074,0.0157273,0.0509587,-0.0535985,0.0969337,0.00438955
1413393227105760512,-2.04934,-0.195295,1.19639,0.53167,-0.305152,-0.757043,-0.226044,-0.393464,0.179533,-0.0641349,-0.000705544,0.0157307,0.0510597,-0.0532151,0.0967365,0.00459717
1413393227155760384,-2.06892,-0.18649,1.17278,0.533515,-0.305985,-0.75606,-0.22385,-0.402588,0.17469,-0.0469278,-0.000689344,0.0157956,0.0511485,-0.0533752,0.0968741,0.00451239
1413393227205760512,-2.08913,-0.177837,1.15788,0.535369,-0.306692,-0.755115,-0.221636,-0.40815,0.170893,-0.0253157,-0.000681495,0.0158394,0.0512025,-0.0533781,0.0969287,0.00435796
1413393227255760384,-2.10948,-0.169387,1.14469,0.537909,-0.309012,-0.753423,-0.217991,-0.409167,0.170624,8.7604e-06,-0.000657857,0.0158922,0.0512839,-0.05323,0.0969913,0.00412127
1413393227305760512,-2.12987,-0.160981,1.13904,0.538096,-0.310435,-0.753239,-0.216135,-0.408811,0.167679,-0.00980049,-0.000647118,0.0159358,0.0513879,-0.0532328,0.0969931,0.00390538
1413393227355760384,-2.15001,-0.152646,1.1183,0.539102,-0.311522,-0.752396,-0.214997,-0.407662,0.164705,0.00142623,-0.000554162,0.015998,0.0515391,-0.0530901,0.0970365,0.00378928
1413393227405760512,-2.17052,-0.144191,1.12379,0.538626,-0.31295,-0.752562,-0.21353,-0.402476,0.171696,0.00868534,-0.00055664,0.0160618,0.0516175,-0.0536097,0.0969395,0.00377824
1413393227455760384,-2.19076,-0.135528,1.12454,0.538664,-0.314543,-0.752273,-0.212109,-0.401128,0.176265,0.0103513,-0.000574579,0.0160799,0.0517025,-0.0535652,0.0967886,0.00359201
1413393227505760512,-2.21079,-0.126614,1.1229,0.538686,-0.315529,-0.751988,-0.211598,-0.398231,0.178906,0.00836298,-0.000589876,0.01609,0.0517708,-0.0532302,0.0966881,0.00326296
1413393227555760384,-2.23045,-0.11719,1.12384,0.5395,-0.317438,-0.750556,-0.211753,-0.389559,0.193095,0.0141057,-0.000593305,0.0160457,0.0518473,-0.0530191,0.0965408,0.00304451
1413393227605760512,-2.24972,-0.107307,1.1237,0.539967,-0.320626,-0.748724,-0.212243,-0.380726,0.199146,0.0174302,-0.000606322,0.0160448,0.0519198,-0.052779,0.0965077,0.0027717
1413393227655760384,-2.26842,-0.0969767,1.12885,0.539266,-0.324123,-0.747179,-0.214153,-0.367812,0.212449,0.0255367,-0.00061979,0.016055,0.0519788,-0.0523552,0.0964817,0.00241899
1413393227705760512,-2.28635,-0.0860246,1.13346,0.53775,-0.32907,-0.745364,-0.216727,-0.351866,0.225657,0.021344,-0.000639537,0.0160364,0.0520375,-0.0519763,0.0964755,0.00209874
1413393227755760384,-2.30367,-0.0745118,1.15091,0.536396,-0.335003,-0.742833,-0.219665,-0.33863,0.234443,0.00808898,-0.000660345,0.0160174,0.0521218,-0.0510177,0.0965807,0.00144329
1413393227805760512,-2.32012,-0.0627056,1.15085,0.534115,-0.340483,-0.74052,-0.224552,-0.326974,0.237265,-0.00948194,-0.00065616,0.0160377,0.0521653,-0.050874,0.0966221,0.00127206
1413393227855760384,-2.33608,-0.0504604,1.16356,0.532984,-0.348646,-0.736522,-0.227838,-0.311147,0.252629,-0.0109497,-0.000638169,0.0159939,0.0522453,-0.0501723,0.0967837,0.000735168
1413393227905760512,-2.35157,-0.0377042,1.17245,0.530851,-0.356455,-0.732799,-0.232687,-0.30691,0.25731,0.000509573,-0.000624626,0.0160019,0.0523033,-0.0494959,0.0969309,0.000241403
1413393227955760384,-2.36632,-0.0246527,1.17933,0.529524,-0.36483,-0.727862,-0.23816,-0.284279,0.264325,-0.00295504,-0.000611765,0.0160269,0.052365,-0.0491272,0.0970069,-6.72203e-05
1413393228005760512,-2.37983,-0.0110245,1.18001,0.527141,-0.374389,-0.7228,-0.243959,-0.256222,0.281096,-0.0199689,-0.000600788,0.016021,0.052418,-0.0489357,0.0970795,-0.000289123
1413393228055760384,-2.39244,0.00312094,1.18017,0.523969,-0.383464,-0.717689,-0.251663,-0.252703,0.284735,-0.0288089,-0.000589185,0.0160262,0.0524625,-0.0488565,0.0971253,-0.000421029
1413393228105760512,-2.40449,0.0175792,1.17831,0.521032,-0.393255,-0.712227,-0.258088,-0.236676,0.295882,-0.00605607,-0.000570948,0.0160352,0.0525022,-0.0489028,0.0971499,-0.000481629
1413393228155760384,-2.4157,0.0325374,1.17866,0.516425,-0.402352,-0.707614,-0.265897,-0.21524,0.302622,-0.0294459,-0.000551882,0.0160978,0.052568,-0.0491031,0.0970841,-0.000413733
1413393228205760512,-2.42644,0.0476414,1.17938,0.51189,-0.41194,-0.703043,-0.272038,-0.21411,0.306951,-0.018828,-0.000514048,0.0161707,0.0525785,-0.0495937,0.0969451,-8.5973e-05
1413393228255760384,-2.43671,0.0632922,1.1787,0.507221,-0.418826,-0.699527,-0.27924,-0.203162,0.313355,-0.0113657,-0.000480073,0.0162181,0.0526492,-0.0496527,0.0969243,-9.72749e-05
1413393228305760512,-2.44674,0.079282,1.17915,0.503051,-0.425291,-0.695989,-0.285773,-0.198593,0.318624,-0.00641305,-0.00045836,0.016246,0.0527027,-0.0492969,0.0970019,-0.000332685
1413393228355760384,-2.45662,0.0956018,1.17999,-0.499309,0.431033,0.69258,0.29195,-0.199106,0.326844,0.00414023,-0.000439715,0.0162503,0.0527458,-0.0489357,0.0971017,-0.000587459
1413393228405760512,-2.46624,0.112259,1.18006,-0.495412,0.436773,0.688959,0.298549,-0.183649,0.334883,0.0102344,-0.000407239,0.0162753,0.0527987,-0.0486766,0.0971604,-0.000780193
1413393228455760384,-2.47545,0.129124,1.18288,-0.49226,0.443621,0.68437,0.304168,-0.18049,0.340099,0.0182884,-0.000377249,0.0163103,0.0528495,-0.0485022,0.097198,-0.000863851
1413393228505760512,-2.48464,0.145998,1.18495,-0.490651,0.449338,0.678973,0.310407,-0.190939,0.336516,0.0175935,-0.000340721,0.0163612,0.0529021,-0.0483762,0.0972166,-0.000888513
1413393228555760384,-2.49364,0.162838,1.18625,-0.488465,0.4554,0.673975,0.315867,-0.171464,0.34005,0.0111203,-0.000319547,0.0164076,0.0529252,-0.0482435,0.0972938,-0.000912942
1413393228605760512,-2.50237,0.179672,1.18673,-0.4848,0.462154,0.66985,0.320444,-0.175053,0.338306,0.0137618,-0.000312148,0.0164559,0.052968,-0.0481391,0.0973848,-0.000937389
1413393228655760384,-2.51126,0.196359,1.18655,-0.482443,0.467936,0.66607,0.323475,-0.18362,0.333973,0.018906,-0.000325822,0.0165181,0.0529915,-0.0478747,0.0974891,-0.00101147
1413393228705760512,-2.5201,0.213054,1.18587,-0.479211,0.472295,0.663735,0.326727,-0.171174,0.337274,0.0124326,-0.000332289,0.0165446,0.0530227,-0.0473945,0.0975698,-0.00125734
1413393228755760384,-2.52899,0.229784,1.18847,-0.476636,0.476656,0.661544,0.328601,-0.182504,0.335191,0.0186619,-0.000336461,0.0165808,0.0530658,-0.0470679,0.097686,-0.00135197
1413393228805760512,-2.5382,0.246867,1.19379,-0.473916,0.481437,0.66046,0.327742,-0.190394,0.349298,0.00141496,-0.000330635,0.0165998,0.0531045,-0.0465031,0.0977507,-0.00143174
1413393228855760384,-2.5474,0.264509,1.19802,-0.471354,0.485739,0.659862,0.326289,-0.180354,0.357926,-0.0117378,-0.000239228,0.0166579,0.0531451,-0.0459866,0.0979223,-0.00126978
1413393228905760512,-2.55623,0.28253,1.19334,-0.467875,0.489883,0.660534,0.323731,-0.178684,0.369824,-0.0105102,-0.000161609,0.0166999,0.0532067,-0.0454682,0.0980247,-0.00101468
1413393228955760384,-2.56516,0.301355,1.19346,-0.466532,0.491799,0.660419,0.322998,-0.18182,0.381022,-0.023131,-0.000169469,0.0167158,0.0532323,-0.0450415,0.0981899,-0.00124419
1413393229005760512,-2.57397,0.321075,1.1932,-0.46474,0.491695,0.660869,0.324817,-0.169061,0.406455,-0.0162384,-0.000154618,0.0167313,0.0532825,-0.0447649,0.098321,-0.00129306
1413393229055760384,-2.58274,0.342061,1.19541,-0.46197,0.489153,0.662351,0.329551,-0.181777,0.427697,-0.0391159,-0.000167126,0.0167275,0.0533246,-0.0441092,0.0980844,-0.00129454
1413393229105760512,-2.59188,0.363529,1.19978,-0.460925,0.485836,0.662995,0.334589,-0.184687,0.434525,-0.0629701,-0.000152216,0.0167579,0.0533625,-0.0436854,0.0982873,-0.00139622
1413393229155760384,-2.60145,0.385191,1.21013,-0.459778,0.483163,0.663592,0.338827,-0.187378,0.436085,-0.0552335,-0.000128958,0.0167774,0.0534098,-0.0431055,0.0983881,-0.00152887
1413393229205760512,-2.61135,0.407006,1.21,-0.458758,0.480071,0.664614,0.342581,-0.211723,0.44028,-0.0865089,-0.000128985,0.0168158,0.053479,-0.0425797,0.0985867,-0.00166035
1413393229255760384,-2.6223,0.429068,1.21063,-0.458264,0.47717,0.665581,0.345405,-0.226548,0.4407,-0.104369,-0.000111861,0.0168353,0.0535269,-0.0419793,0.0987585,-0.00180076
1413393229305760512,-2.6339,0.450988,1.21505,-0.458605,0.474907,0.665677,0.347878,-0.233763,0.439919,-0.118798,-7.88216e-05,0.016882,0.0535764,-0.0413885,0.0990619,-0.00181961
1413393229355760384,-2.64641,0.472854,1.21323,-0.459762,0.473097,0.665446,0.349257,-0.2679,0.442322,-0.134716,-8.71467e-05,0.0168933,0.0536191,-0.0407515,0.0992266,-0.00186182
1413393229405760512,-2.66026,0.494748,1.23132,-0.462055,0.472353,0.664495,0.349048,-0.28455,0.439737,-0.151798,-8.30259e-05,0.0168723,0.0536816,-0.0395608,0.0992311,-0.00212651
1413393229455760384,-2.67483,0.516499,1.23275,-0.466054,0.473136,0.662204,0.34702,-0.291465,0.43401,-0.150546,-8.37745e-05,0.016875,0.0537148,-0.0389849,0.0993633,-0.0022392
1413393229505760512,-2.68991,0.538065,1.23582,-0.470726,0.474867,0.659617,0.343254,-0.309324,0.428789,-0.153329,-6.50732e-05,0.0168895,0.0537488,-0.0383832,0.0995363,-0.00226856
1413393229555760384,-2.70529,0.559473,1.22849,-0.473099,0.477118,0.65829,0.339397,-0.309937,0.427726,-0.139379,-4.50957e-05,0.0168912,0.0537961,-0.0379579,0.099632,-0.0023631
1413393229605760512,-2.72,0.580578,1.23128,-0.475317,0.479833,0.65725,0.33445,-0.294068,0.428656,-0.127931,-3.537e-05,0.0168883,0.0538474,-0.0372789,0.0996694,-0.00236957
1413393229655760384,-2.73493,0.601731,1.23938,-0.475935,0.482725,0.657238,0.329395,-0.299534,0.423187,-0.122939,-1.42566e-05,0.0168861,0.0538874,-0.0363479,0.0997128,-0.00231775
1413393229705760512,-2.7493,0.622963,1.24853,-0.47478,0.48448,0.658414,0.32612,-0.280096,0.433552,-0.107532,2.67462e-06,0.0168725,0.0539392,-0.035246,0.0997341,-0.00228583
1413393229755760384,-2.76319,0.644598,1.26323,-0.473349,0.485954,0.659805,0.323183,-0.275017,0.439285,-0.0862061,1.84831e-05,0.0168407,0.0539839,-0.0341503,0.0998007,-0.00219711
1413393229805760512,-2.77675,0.666863,1.28015,-0.470752,0.487853,0.66179,0.320041,-0.266706,0.457946,-0.067594,2.39718e-05,0.016832,0.054025,-0.0330912,0.0999005,-0.00216534
1413393229855760384,-2.78727,0.689146,1.27917,-0.467618,0.488568,0.664903,0.317078,-0.256601,0.477579,-0.0443678,-1.30148e-05,0.0168426,0.0540749,-0.0322837,0.100176,-0.00224538
1413393229905760512,-2.79964,0.713361,1.26909,-0.465005,0.489588,0.667041,0.31485,-0.252528,0.493815,-0.0254652,-1.62818e-05,0.0168416,0.0541169,-0.0313777,0.10028,-0.00208084
1413393229955760384,-2.81203,0.738914,1.26277,-0.463325,0.489168,0.668666,0.314531,-0.252085,0.52722,-0.0116061,-1.14765e-05,0.0168513,0.0541595,-0.0308278,0.100428,-0.00214301
1413393230005760512,-2.82417,0.7658,1.25808,-0.461284,0.487109,0.670539,0.316733,-0.242224,0.555284,0.0371237,-7.5055e-06,0.0168653,0.0542177,-0.0301151,0.100496,-0.0022207
1413393230055760384,-2.8363,0.794143,1.24977,-0.460636,0.482414,0.6718,0.322142,-0.25809,0.578833,0.038618,-6.31976e-06,0.0168474,0.0542616,-0.0292029,0.100512,-0.00208209
1413393230105760512,-2.84903,0.823513,1.24682,-0.460245,0.477973,0.672838,0.327117,-0.259193,0.594744,0.0276118,-1.62833e-05,0.0168526,0.0543044,-0.0286219,0.100677,-0.00221679
1413393230155760384,-2.86226,0.853628,1.24375,-0.460355,0.474484,0.673363,0.33094,-0.27328,0.606512,0.0232293,2.55456e-06,0.0168508,0.0543469,-0.0282084,0.100812,-0.00216978
1413393230205760512,-2.87627,0.884149,1.24038,-0.460256,0.471425,0.67416,0.333813,-0.295512,0.608938,0.00243827,1.78881e-05,0.0168509,0.0543839,-0.0278212,0.100873,-0.00208824
1413393230255760384,-2.89127,0.914948,1.23383,-0.461543,0.468859,0.673991,0.335983,-0.309877,0.617807,-0.0183448,9.25162e-06,0.0168448,0.0544012,-0.0274576,0.101019,-0.00211753
1413393230305760512,-2.90739,0.94587,1.23504,-0.463963,0.46718,0.673103,0.336771,-0.326854,0.617893,-0.0257233,7.67964e-07,0.0168361,0.0544398,-0.0271288,0.10109,-0.00237946
1413393230355760384,-2.92399,0.97658,1.22297,-0.465829,0.467973,0.67235,0.334591,-0.336767,0.608564,-0.0617773,-1.02656e-05,0.0168403,0.0544758,-0.0267165,0.101137,-0.00239077
1413393230405760512,-2.94124,1.00732,1.21131,-0.468654,0.468756,0.670798,0.33266,-0.34712,0.610323,-0.0659667,-2.50039e-05,0.0168377,0.0545215,-0.0264188,0.101221,-0.00234126
1413393230455760384,-2.95916,1.03824,1.21626,-0.470024,0.470784,0.66936,0.330752,-0.349352,0.619288,-0.0604435,-4.18096e-05,0.0168261,0.0545702,-0.0262377,0.101199,-0.00255015
1413393230505760512,-2.97679,1.0693,1.21623,-0.471125,0.474531,0.666812,0.328975,-0.348994,0.615794,-0.0372653,-6.11485e-05,0.0168238,0.0546213,-0.0261787,0.10131,-0.00258822
1413393230555760384,-2.99343,1.10026,1.20753,-0.471151,0.479728,0.663471,0.328152,-0.335039,0.615108,-0.0553337,-6.81862e-05,0.0168283,0.0546641,-0.0257378,0.101362,-0.00216892
1413393230605760512,-3.00942,1.13122,1.21348,-0.470812,0.485989,0.659086,0.328264,-0.320576,0.628038,-0.0419538,-6.95696e-05,0.0168286,0.0547078,-0.0252877,0.101305,-0.00174653
1413393230655760384,-3.02512,1.16312,1.21919,-0.469081,0.493355,0.654392,0.329144,-0.314396,0.636294,-0.0182115,-6.75723e-05,0.0168231,0.0547429,-0.0250836,0.101335,-0.00145139
1413393230705760512,-3.04028,1.19604,1.21632,-0.467001,0.500555,0.649119,0.331662,-0.301538,0.668459,0.0337654,-6.33368e-05,0.016823,0.0548013,-0.0247282,0.101253,-0.00075015
1413393230755760384,-3.05456,1.22958,1.21794,-0.464469,0.508207,0.643344,0.334818,-0.278241,0.676719,0.0458439,-6.83904e-05,0.0168145,0.0548531,-0.0248298,0.101209,-0.000291724
1413393230805760512,-3.0679,1.26324,1.21735,-0.461497,0.515882,0.637352,0.338627,-0.268106,0.687907,0.0619779,-6.75911e-05,0.0168089,0.0548737,-0.0248139,0.101304,-8.66119e-05
1413393230855760384,-3.08025,1.2978,1.21719,-0.457266,0.523721,0.631191,0.343835,-0.237999,0.70647,0.0751725,-6.49495e-05,0.0168109,0.054907,-0.0248024,0.101458,0.00030887
1413393230905760512,-3.09166,1.33323,1.22095,-0.451776,0.530923,0.625328,0.350692,-0.226409,0.716394,0.106847,-6.32262e-05,0.0168069,0.054936,-0.0249424,0.101537,0.000581438
1413393230955760384,-3.1023,1.36912,1.22631,-0.444766,0.536633,0.620688,0.359102,-0.21095,0.721793,0.123092,-6.05585e-05,0.0168124,0.0549665,-0.0249787,0.101659,0.000944539
1413393231005760512,-3.11238,1.40548,1.22914,-0.436928,0.540917,0.617081,0.368394,-0.198389,0.727559,0.137421,-6.39255e-05,0.0168101,0.0549862,-0.0251826,0.10172,0.0011473
1413393231055760384,-3.12246,1.4422,1.24495,-0.429207,0.544058,0.614347,0.377306,-0.203192,0.742795,0.127577,-4.16774e-05,0.0168248,0.0550164,-0.0251183,0.101804,0.00152881
1413393231105760512,-3.13305,1.47941,1.26426,-0.423142,0.54624,0.611668,0.385272,-0.225185,0.74385,0.126601,-2.65713e-05,0.0168308,0.055065,-0.0249642,0.101817,0.0020267
1413393231155760384,-3.14431,1.51698,1.27353,-0.417898,0.548117,0.609463,0.391769,-0.236853,0.749925,0.140093,-3.97116e-06,0.016835,0.0551027,-0.0250427,0.101858,0.00274961
1413393231205760512,-3.15676,1.55476,1.28249,-0.414148,0.551048,0.606966,0.395499,-0.253517,0.760284,0.138899,3.40133e-06,0.0168347,0.0551241,-0.0252322,0.10189,0.00320881
1413393231255760384,-3.17034,1.59301,1.29433,-0.410667,0.552818,0.605253,0.399266,-0.289923,0.761622,0.131806,7.33512e-07,0.0168307,0.055131,-0.0256499,0.101895,0.00368731
1413393231305760512,-3.18516,1.63105,1.30674,-0.410135,0.555317,0.602437,0.400602,-0.303529,0.755818,0.0848185,-1.01031e-05,0.0168196,0.0551372,-0.0258442,0.101794,0.00421508
1413393231355760384,-3.20075,1.66882,1.30988,-0.411069,0.558112,0.5994,0.400316,-0.320427,0.756825,0.0343403,-2.32246e-05,0.0168216,0.0551438,-0.0259015,0.102034,0.00446037
1413393231405760512,-3.21703,1.70662,1.30997,-0.413568,0.560812,0.595854,0.39926,-0.341408,0.763005,-0.00391004,-3.38901e-05,0.0168218,0.0551474,-0.0260187,0.102212,0.00459702
1413393231455760384,-3.234,1.74468,1.30798,-0.418343,0.563012,0.590813,0.39868,-0.338151,0.764669,-0.0366036,-2.51256e-05,0.0168319,0.0551475,-0.0262426,0.1024,0.00496034
1413393231505760512,-3.25116,1.78277,1.30526,-0.425163,0.563982,0.584699,0.399108,-0.346649,0.752495,-0.0806181,-2.03422e-05,0.0168489,0.0551416,-0.0267889,0.102613,0.00527808
1413393231555760384,-3.26843,1.82043,1.31218,-0.433514,0.56283,0.578271,0.401113,-0.347911,0.74159,-0.128601,9.74148e-06,0.0168728,0.0551646,-0.0268736,0.102883,0.00617914
1413393231605760512,-3.28535,1.85722,1.32434,-0.44113,0.561606,0.572148,0.403299,-0.319724,0.717734,-0.158749,5.466e-05,0.0168919,0.0552126,-0.0269042,0.103041,0.00704873
1413393231655760384,-3.30129,1.89266,1.3275,-0.44606,0.561447,0.567212,0.405067,-0.312622,0.68816,-0.174111,0.000112701,0.0169208,0.0552853,-0.0272998,0.10304,0.00805922
1413393231705760512,-3.31618,1.9267,1.33603,-0.447191,0.562022,0.564555,0.406731,-0.283464,0.659467,-0.173688,0.000204328,0.0169845,0.0553689,-0.0277802,0.103031,0.00950951
1413393231755760384,-3.32971,1.95921,1.33956,-0.445449,0.564998,0.562414,0.407484,-0.249594,0.631684,-0.160378,0.000280366,0.0170203,0.0554301,-0.0282952,0.102753,0.0108489
1413393231805760512,-3.34214,1.99024,1.34093,-0.442807,0.569377,0.560535,0.406857,-0.244107,0.594586,-0.151986,0.000306669,0.017049,0.0554965,-0.0292495,0.101862,0.0120408
1413393231855760384,-3.35325,2.01941,1.32466,-0.440613,0.575501,0.557769,0.404416,-0.209501,0.564616,-0.138745,0.000282736,0.0170845,0.055539,-0.0301884,0.101221,0.0127191
1413393231905760512,-3.36289,2.04744,1.31252,-0.436157,0.583648,0.55497,0.401412,-0.172129,0.544642,-0.111516,0.000248916,0.0172025,0.0556049,-0.0319725,0.100383,0.0128343
1413393231955760384,-3.3706,2.07436,1.28915,-0.432546,0.591482,0.551035,0.399266,-0.147095,0.537708,-0.0934491,0.000206867,0.0173542,0.0556713,-0.0338615,0.0997702,0.0129586
1413393232005760512,-3.37601,2.10051,1.25468,-0.428571,0.59911,0.546427,0.398512,-0.0987341,0.516623,-0.0819622,0.000171872,0.0173431,0.0557895,-0.0349878,0.0983448,0.0138392
1413393232055760384,-3.37951,2.12641,1.25716,-0.422522,0.605651,0.542636,0.400261,-0.0541545,0.521242,-0.0408371,0.000156909,0.0173632,0.0558504,-0.0352482,0.0983455,0.0151091
1413393232105760512,-3.38123,2.15211,1.25796,-0.416337,0.611557,0.538396,0.403476,-0.0199137,0.503898,-0.01426,0.000125054,0.0173417,0.0559462,-0.0354353,0.0979371,0.0163447
1413393232155760384,-3.38109,2.17722,1.25487,-0.409871,0.617395,0.53357,0.407593,0.0219356,0.493173,-0.0159509,0.000110876,0.0173519,0.0559556,-0.0359094,0.098136,0.01694
1413393232205760512,-3.37925,2.202,1.25447,-0.40289,0.621367,0.528643,0.414872,0.0512685,0.49444,-0.00792008,0.000109577,0.017352,0.0559561,-0.0365032,0.098287,0.0172863
1413393232255760384,-3.37609,2.2266,1.25312,-0.396519,0.626078,0.522912,0.421145,0.0726462,0.48887,-0.0411214,0.000109305,0.0173521,0.0559563,-0.0371049,0.0984286,0.0176253
1413393232305760512,-3.37164,2.25095,1.25033,-0.39049,0.63093,0.516677,0.427189,0.103174,0.4832,-0.0737429,0.000108915,0.0173521,0.0559565,-0.0377074,0.0985704,0.0179667
1413393232355760384,-3.36604,2.27521,1.24594,-0.38542,0.637193,0.509124,0.431544,0.119101,0.483397,-0.109766,0.000108799,0.0173521,0.0559567,-0.0383091,0.0987087,0.0183063
1413393232405760512,-3.35936,2.2993,1.23992,-0.37929,0.643674,0.502849,0.434702,0.144709,0.481985,-0.126651,0.000108722,0.0173521,0.0559568,-0.0389076,0.0988446,0.0186431
1413393232455760384,-3.35134,2.32332,1.24288,-0.37341,0.649841,0.49616,0.438289,0.166972,0.477036,-0.168084,7.7741e-05,0.0173738,0.0559757,-0.039177,0.0990317,0.0197038
1413393232505760512,-3.34221,2.34747,1.2324,-0.368054,0.656033,0.48959,0.440975,0.182711,0.482955,-0.204862,3.89771e-05,0.0174037,0.0560099,-0.0392271,0.0992179,0.0211167
1413393232555760384,-3.33242,2.37171,1.23333,-0.363789,0.661049,0.483682,0.443536,0.199548,0.488453,-0.243377,1.31881e-05,0.0174355,0.0560343,-0.0393864,0.0995272,0.0220189
1413393232605760512,-3.32209,2.39606,1.22542,-0.360178,0.664725,0.479182,0.445867,0.210048,0.484824,-0.276444,-1.42402e-05,0.0174552,0.0560585,-0.039617,0.0997111,0.0226506
1413393232655760384,-3.3109,2.42022,1.21644,-0.357727,0.668144,0.474513,0.447719,0.24016,0.4843,-0.257438,-3.93132e-05,0.0174556,0.0560873,-0.0395926,0.0996311,0.023335
1413393232705760512,-3.29863,2.44449,1.20693,-0.355755,0.670416,0.470786,0.449824,0.247706,0.48946,-0.250655,-5.72348e-05,0.0174631,0.0561101,-0.0398028,0.0996934,0.024062
1413393232755760384,-3.2854,2.4687,1.19661,-0.352972,0.671719,0.468927,0.452009,0.270996,0.484946,-0.228239,-7.13731e-05,0.0174817,0.0561263,-0.0401577,0.0999564,0.0246442
1413393232805760512,-3.271,2.493,1.18354,-0.350526,0.673129,0.467405,0.453388,0.302826,0.494507,-0.224306,-8.00603e-05,0.0175002,0.0561483,-0.040459,0.100173,0.0252595
1413393232855760384,-3.25538,2.51808,1.16892,-0.349363,0.673771,0.465903,0.454878,0.311108,0.506185,-0.215427,-9.47627e-05,0.0175378,0.0561911,-0.0405674,0.100488,0.0262195
1413393232905760512,-3.23875,2.54296,1.14819,-0.347079,0.674674,0.466117,0.455067,0.334774,0.501786,-0.204236,-0.000117551,0.0176016,0.0562539,-0.0404032,0.10099,0.0276882
1413393232955760384,-3.22092,2.56807,1.12586,-0.343328,0.673939,0.467664,0.457409,0.356227,0.502187,-0.159049,-0.000125928,0.0176639,0.0563192,-0.0401105,0.101464,0.0292616
1413393233005760512,-3.20235,2.59374,1.10115,-0.340016,0.673438,0.469548,0.458689,0.364393,0.517298,-0.12698,-0.000115967,0.0176707,0.0563935,-0.0398409,0.101277,0.030934
1413393233055760384,-3.18314,2.61989,1.0717,-0.336717,0.672311,0.472103,0.460152,0.374055,0.527798,-0.0880827,-0.000104796,0.017636,0.056479,-0.0392975,0.100592,0.0328501
1413393233105760512,-3.16374,2.64627,1.0599,-0.333713,0.672122,0.474262,0.460395,0.389503,0.524182,-0.0551574,-0.000101324,0.0176134,0.0564777,-0.0390768,0.100549,0.0338851
1413393233155760384,-3.14399,2.67307,1.05003,-0.332511,0.671498,0.475308,0.461096,0.388265,0.540762,-0.0130774,-9.07414e-05,0.0176402,0.0565213,-0.0388327,0.100987,0.0347691
1413393233205760512,-3.12424,2.70055,1.05591,-0.331395,0.670301,0.476173,0.462745,0.393378,0.560647,0.0386296,-6.97638e-05,0.0176892,0.0565824,-0.0388737,0.101529,0.0355295
1413393233255760384,-3.10395,2.72853,1.06311,-0.330932,0.66872,0.474458,0.467106,0.409834,0.556218,0.0791059,-4.99624e-05,0.0177441,0.0566481,-0.0389187,0.102187,0.0360434
1413393233305760512,-3.08346,2.7567,1.07037,-0.330348,0.667564,0.471892,0.471747,0.403081,0.571713,0.12397,-1.12078e-05,0.0178001,0.0567154,-0.0390266,0.102752,0.0367424
1413393233355760384,-3.06297,2.78514,1.08071,-0.330126,0.666298,0.46792,0.477614,0.408209,0.572651,0.178059,9.09464e-06,0.0178178,0.0567578,-0.0388973,0.102838,0.0376135
1413393233405760512,-3.04259,2.81333,1.09305,-0.330158,0.666165,0.461889,0.483611,0.404763,0.558297,0.187942,3.65981e-05,0.0178557,0.056832,-0.0391593,0.102377,0.0383073
1413393233455760384,-3.02255,2.84125,1.09864,-0.330751,0.66783,0.454179,0.488189,0.394651,0.556844,0.236161,5.23344e-05,0.0178544,0.0568843,-0.039172,0.101753,0.0387758
1413393233505760512,-3.00292,2.86863,1.11101,-0.327567,0.669671,0.448263,0.493255,0.385147,0.529627,0.279136,3.82307e-05,0.0178504,0.0569052,-0.0391759,0.101447,0.038816
1413393233555760384,-2.98367,2.89482,1.12251,-0.324643,0.673664,0.44105,0.496244,0.38118,0.509292,0.284195,4.63155e-05,0.0178535,0.0569671,-0.0389178,0.101246,0.0389929
1413393233605760512,-2.96457,2.92046,1.13656,-0.317547,0.678186,0.435669,0.49942,0.375565,0.51251,0.330181,5.05482e-05,0.0178396,0.0570087,-0.0386367,0.101047,0.0391506
1413393233655760384,-2.94608,2.94523,1.1498,-0.309264,0.684291,0.430232,0.501001,0.367252,0.502529,0.362192,6.21128e-05,0.0178487,0.0570669,-0.0380411,0.100756,0.0395158
1413393233705760512,-2.92842,2.96954,1.17591,-0.300668,0.691439,0.424123,0.501628,0.353646,0.492512,0.393917,6.95468e-05,0.0178768,0.0570985,-0.0379504,0.101623,0.0393033
1413393233755760384,-2.91105,2.99412,1.20247,-0.292253,0.69524,0.417763,0.50666,0.342553,0.493667,0.452518,6.87339e-05,0.0178975,0.0571524,-0.0378375,0.102076,0.039564
1413393233805760512,-2.89466,3.01806,1.22833,-0.28791,0.698705,0.409548,0.511068,0.319615,0.474599,0.471176,6.35315e-05,0.0179375,0.0571827,-0.0376112,0.103012,0.0396685
1413393233855760384,-2.87924,3.04156,1.25378,-0.284207,0.70006,0.402376,0.516949,0.294083,0.479797,0.456698,6.12414e-05,0.0179638,0.0572072,-0.0376346,0.104739,0.0393656
1413393233905760512,-2.8649,3.06476,1.27614,-0.284028,0.701755,0.394062,0.521137,0.279097,0.46868,0.452232,3.41175e-05,0.0179827,0.0572338,-0.0378972,0.105952,0.0394193
1413393233955760384,-2.85118,3.08718,1.29976,-0.281824,0.703448,0.38609,0.525995,0.274268,0.442967,0.442914,-1.18538e-05,0.0180099,0.0572551,-0.0380996,0.106983,0.0393925
1413393234005760512,-2.83825,3.10871,1.31727,-0.28046,0.707825,0.377242,0.527271,0.248002,0.434868,0.445788,-3.47485e-05,0.0180484,0.0572701,-0.0382951,0.108269,0.0392695
1413393234055760384,-2.82622,3.1292,1.33678,-0.278971,0.713019,0.368206,0.52745,0.236044,0.412085,0.431796,-5.46398e-05,0.0180862,0.0572997,-0.0386174,0.109828,0.0390992
1413393234105760512,-2.81444,3.14838,1.34202,-0.275513,0.718965,0.360041,0.526832,0.232857,0.384682,0.413623,-8.13033e-05,0.0181312,0.0573394,-0.0389379,0.111829,0.0390191
1413393234155760384,-2.80283,3.16722,1.34517,-0.271309,0.724728,0.352819,0.526004,0.22176,0.372481,0.363756,-0.000111115,0.0181575,0.0573488,-0.0387861,0.11273,0.039066
1413393234205760512,-2.79162,3.18571,1.35771,-0.269639,0.7289,0.34521,0.526146,0.221578,0.357207,0.327202,-0.000142848,0.0181736,0.0573758,-0.0386594,0.113601,0.0389036
1413393234255760384,-2.78112,3.20284,1.39202,-0.272461,0.730305,0.334028,0.529948,0.227839,0.336777,0.280144,-0.000179227,0.0181836,0.0574059,-0.038538,0.114665,0.038995
1413393234305760512,-2.7737,3.21662,1.53249,-0.279049,0.730068,0.321572,0.534532,0.227205,0.312684,0.243745,-0.00026884,0.0182242,0.057466,-0.0391223,0.118876,0.0385508
1413393234355760384,-2.83039,3.18875,2.16274,-0.297483,0.724574,0.320455,0.532734,0.217618,0.275136,0.219485,-0.00124798,0.018242,0.0577283,-0.0345077,0.133554,0.0501329
1413393234405760512,-2.81782,3.19971,2.24955,-0.304805,0.724088,0.307347,0.536962,0.233891,0.214563,0.169558,-0.00136014,0.018282,0.0578085,-0.0344426,0.138123,0.0511956
1413393234455760384,-2.80696,3.20746,2.27693,-0.308533,0.725314,0.293693,0.540806,0.236082,0.15412,0.140484,-0.00131678,0.0182876,0.0578384,-0.0342723,0.13834,0.0508335
1413393234505760512,-2.79501,3.21259,2.2736,-0.308018,0.726287,0.283815,0.545051,0.247387,0.0679551,0.107742,-0.00131027,0.0182922,0.0578825,-0.0339636,0.139091,0.0511152
1413393234555760384,-2.78173,3.21309,2.26816,-0.303458,0.727572,0.276042,0.549866,0.263808,-0.0320498,0.157168,-0.00131682,0.0183281,0.0579423,-0.0332157,0.139269,0.0517132
1413393234605760512,-2.76795,3.20878,2.26984,-0.290462,0.728098,0.273659,0.55733,0.279303,-0.106051,0.163723,-0.00131129,0.0183352,0.0579706,-0.032793,0.140012,0.0521878
1413393234655760384,-2.7532,3.2008,2.27863,-0.269772,0.729034,0.276269,0.565162,0.273917,-0.193295,0.23855,-0.00130975,0.0183455,0.0580196,-0.0321347,0.140791,0.0524616
1413393234705760512,-2.74034,3.18814,2.29421,-0.246056,0.731125,0.280597,0.57112,0.239346,-0.27647,0.390439,-0.00131551,0.018367,0.058069,-0.0316095,0.141701,0.0523187
1413393234755760384,-2.72927,3.17262,2.31149,-0.225302,0.735312,0.282605,0.573315,0.200401,-0.316878,0.417198,-0.00131785,0.0183823,0.0581017,-0.0309243,0.141994,0.0532757
1413393234805760512,-2.7199,3.15595,2.33191,-0.204817,0.741257,0.284232,0.572538,0.165392,-0.329475,0.417142,-0.00131617,0.0183912,0.0581289,-0.0304348,0.142431,0.053591
1413393234855760384,-2.71212,3.13914,2.3475,-0.190072,0.749124,0.281706,0.568619,0.138839,-0.332776,0.348879,-0.00133047,0.0184057,0.0581694,-0.0295852,0.141629,0.0550796
1413393234905760512,-2.70572,3.12306,2.38808,-0.181999,0.756536,0.274129,0.56514,0.117535,-0.325809,0.263773,-0.00131693,0.018412,0.0582146,-0.0282804,0.139773,0.0568333
1413393234955760384,-2.70047,3.10786,2.4372,-0.176599,0.763065,0.264658,0.562585,0.0948384,-0.313768,0.161858,-0.0013108,0.0184166,0.0582485,-0.0270942,0.137435,0.0590687
1413393235005760512,-2.69605,3.09272,2.46016,-0.175001,0.769751,0.252027,0.559769,0.0800822,-0.305407,0.0620938,-0.00131085,0.0184133,0.0582728,-0.026322,0.136025,0.0603105
1413393235055760384,-2.69204,3.07836,2.4801,-0.174589,0.775397,0.238111,0.558195,0.0782213,-0.300108,-0.0370736,-0.00130609,0.018438,0.0582997,-0.0253516,0.132221,0.063308
1413393235105760512,-2.68816,3.06334,2.46869,-0.173076,0.780296,0.22419,0.557603,0.0794725,-0.302641,-0.128379,-0.00130088,0.0184473,0.0583339,-0.0246188,0.129575,0.064822
1413393235155760384,-2.68424,3.04832,2.46339,-0.169343,0.785052,0.211725,0.556946,0.0895988,-0.305122,-0.202006,-0.00130105,0.0184527,0.0583689,-0.024128,0.127617,0.0661021
1413393235205760512,-2.67959,3.03317,2.45768,-0.161145,0.78805,0.202438,0.558595,0.0944547,-0.309993,-0.220048,-0.00128688,0.0184625,0.0584109,-0.0238275,0.125973,0.0670893
1413393235255760384,-2.67474,3.01755,2.44891,-0.148989,0.791547,0.196317,0.559211,0.0978132,-0.313944,-0.236317,-0.00127047,0.0184881,0.0584458,-0.023475,0.124751,0.0681153
1413393235305760512,-2.66976,3.00228,2.44065,-0.134929,0.794512,0.192155,0.56002,0.100941,-0.306397,-0.213185,-0.00125766,0.0184831,0.0585007,-0.0234998,0.123402,0.0685665
1413393235355760384,-2.66481,2.9876,2.43827,-0.122631,0.797942,0.188775,0.559119,0.10087,-0.2864,-0.20343,-0.00124092,0.0184968,0.0585381,-0.0233386,0.122414,0.0691149
1413393235405760512,-2.65977,2.97421,2.43671,-0.111783,0.801507,0.186553,0.557036,0.10174,-0.257209,-0.181206,-0.00123185,0.018521,0.0585873,-0.0234695,0.121368,0.0692276
1413393235455760384,-2.65432,2.96228,2.4324,-0.103243,0.804418,0.184164,0.555281,0.116995,-0.224207,-0.161563,-0.00122644,0.0185342,0.0586146,-0.0237283,0.120587,0.0691172
1413393235505760512,-2.64839,2.9522,2.43171,-0.0953282,0.80734,0.183122,0.552793,0.130422,-0.187426,-0.128653,-0.00120136,0.0185507,0.0586611,-0.023927,0.11989,0.0689801
1413393235555760384,-2.64155,2.94436,2.42625,-0.0854852,0.806495,0.183553,0.555487,0.14587,-0.138834,-0.0867726,-0.00120472,0.0185492,0.0586945,-0.0245276,0.119562,0.06832
1413393235605760512,-2.63444,2.93879,2.42183,-0.0739434,0.804009,0.18579,0.559986,0.144651,-0.0891631,-0.106151,-0.00119928,0.0185564,0.058727,-0.0251552,0.119297,0.0676824
1413393235655760384,-2.62722,2.93598,2.42112,-0.0655398,0.801858,0.185243,0.564281,0.147251,-0.0300738,-0.0868566,-0.00119827,0.0185657,0.0587376,-0.0256479,0.119213,0.0670987
1413393235705760512,-2.62025,2.93662,2.42894,-0.0603702,0.799206,0.183872,0.569048,0.13609,0.0416652,-0.090178,-0.00119251,0.0185696,0.0587631,-0.0263679,0.119232,0.0665009
1413393235755760384,-2.61383,2.94054,2.44023,-0.0596293,0.798234,0.1801,0.571691,0.125091,0.108634,-0.0807881,-0.0012065,0.0185853,0.0587903,-0.0271484,0.119408,0.0660709
1413393235805760512,-2.60815,2.94744,2.4621,-0.0624538,0.797765,0.175046,0.573611,0.107888,0.173896,-0.0736125,-0.00119349,0.0185876,0.0588075,-0.0279299,0.119559,0.0654307
1413393235855760384,-2.60277,2.95602,2.45474,-0.0719471,0.797699,0.166164,0.575231,0.0990607,0.217895,-0.0770342,-0.00117554,0.0185863,0.0588312,-0.0286604,0.119839,0.065238
1413393235905760512,-2.5975,2.96547,2.42063,-0.0829708,0.798066,0.155069,0.576333,0.0841356,0.244256,-0.0791583,-0.00117613,0.0185857,0.0588606,-0.0292695,0.119998,0.0652649
1413393235955760384,-2.59186,2.97364,2.30925,-0.0929804,0.798758,0.143575,0.576825,0.0776323,0.261841,-0.0654967,-0.00115239,0.0185497,0.0588657,-0.0300646,0.1204,0.0659837
1413393236005760512,-2.58605,2.98106,2.20269,-0.0987915,0.798504,0.133338,0.578665,0.067423,0.251473,-0.03755,-0.00113768,0.0185417,0.0588768,-0.0308497,0.120401,0.0667858
1413393236055760384,-2.58087,2.98853,2.12593,-0.103437,0.798939,0.12225,0.5797,0.0685303,0.238755,-0.0319701,-0.00111872,0.0185312,0.0588937,-0.031482,0.120019,0.0674759
1413393236105760512,-2.57568,2.99605,2.07601,-0.104618,0.799842,0.111988,0.580317,0.0843784,0.224812,0.0122745,-0.00110376,0.0185357,0.0588904,-0.0322353,0.119705,0.0681893
1413393236155760384,-2.57138,3.00321,2.05343,-0.103096,0.800989,0.102019,0.580844,0.0512594,0.171781,0.0231857,-0.00109175,0.0185303,0.0589118,-0.0327959,0.119266,0.0691371
1413393236205760512,-2.56912,3.01015,2.04795,-0.0952832,0.803334,0.0944383,0.580222,0.0323513,0.138766,0.0570024,-0.00107592,0.0185372,0.0589322,-0.0336596,0.119127,0.0696191
1413393236255760384,-2.56781,3.01531,2.0435,-0.084115,0.805851,0.0893057,0.579269,-0.00188338,0.123051,0.0946842,-0.00106918,0.0185394,0.0589676,-0.0343105,0.118756,0.0705437
1413393236305760512,-2.5679,3.01986,2.04232,-0.0702789,0.807952,0.0849163,0.578847,0.00631496,0.0918072,0.0797317,-0.00106954,0.0185398,0.0589918,-0.034949,0.118725,0.0717181
1413393236355760384,-2.56756,3.02431,2.0459,-0.0583906,0.809544,0.0783194,0.578875,0.00580825,0.0930625,0.113996,-0.00107963,0.0185429,0.0590287,-0.0358736,0.11901,0.0726482
1413393236405760512,-2.56735,3.02905,2.04979,-0.0501322,0.811548,0.0701242,0.577893,0.00656614,0.107722,0.11271,-0.00108012,0.0185514,0.0590701,-0.0369503,0.119463,0.0735745
1413393236455760384,-2.56711,3.03401,2.05595,-0.043209,0.812863,0.0607123,0.577668,0.000652032,0.102478,0.0997982,-0.0010808,0.0185655,0.0591075,-0.0380458,0.119737,0.0745015
1413393236505760512,-2.56688,3.03915,2.06563,-0.0377102,0.81588,0.050144,0.574808,0.00646547,0.0999616,0.0996473,-0.00107179,0.0185819,0.0591341,-0.0391148,0.120273,0.0752889
1413393236555760384,-2.56617,3.04442,2.07123,-0.0317816,0.819601,0.0400139,0.570651,0.0177627,0.106399,0.105859,-0.0010916,0.0186045,0.0591684,-0.0403392,0.120736,0.0759026
1413393236605760512,-2.56496,3.04983,2.07868,-0.0260997,0.824689,0.0298723,0.564194,0.0325353,0.112521,0.106571,-0.00110806,0.0186131,0.0591982,-0.0415778,0.121312,0.0765512
1413393236655760384,-2.56285,3.05552,2.08647,-0.0214521,0.828906,0.0196358,0.558632,0.0588742,0.115808,0.0548528,-0.00110872,0.0186324,0.0592171,-0.0427853,0.121708,0.077226
1413393236705760512,-2.5597,3.06146,2.09499,-0.0186245,0.830959,0.0103764,0.555925,0.0685222,0.12146,-0.000531037,-0.00112536,0.0186425,0.0592435,-0.0440642,0.122322,0.0779358
1413393236755760384,-2.55582,3.06676,2.09998,-0.0182891,0.831423,0.000141561,0.555339,0.0961921,0.115026,-0.0476217,-0.00113509,0.0186721,0.0592713,-0.0449979,0.122405,0.079006
1413393236805760512,-2.55623,3.06352,1.96407,-0.0271422,0.830474,0.000312789,0.556396,0.116125,0.110745,-0.0921423,-0.00179539,0.018675,0.0594877,-0.0453427,0.127809,0.0813466
1413393236855760384,-2.5586,3.10101,2.25421,-0.015429,0.828406,-0.0239684,0.559403,0.155167,0.0938457,-0.0825313,-0.000877255,0.0186875,0.0592254,-0.0472864,0.120951,0.0806684
1413393236905760512,-2.54881,3.11109,2.2109,-0.0153086,0.826544,-0.0270447,0.562014,0.177141,0.0720839,-0.0119276,-0.00104659,0.0186907,0.0593182,-0.0484548,0.122958,0.0815148
1413393236955760384,-2.53929,3.11411,2.22512,-0.0116474,0.823404,-0.0299364,0.566545,0.203297,0.0419954,0.0319038,-0.00105201,0.0187302,0.0593475,-0.049565,0.123737,0.0825575
1413393237005760512,-2.52848,3.11627,2.25319,-0.00654707,0.820397,-0.030087,0.570965,0.214677,0.0289959,0.124602,-0.00105193,0.0187791,0.0593905,-0.0505184,0.124326,0.0839248
1413393237055760384,-2.51835,3.11746,2.28639,-0.000677896,0.818276,-0.0286224,0.574112,0.206171,0.00552644,0.195071,-0.00103724,0.0187963,0.0594303,-0.051363,0.124667,0.0851073
1413393237105760512,-2.50771,3.11835,2.32811,0.00656454,0.816443,-0.025365,0.576832,0.210539,0.000239727,0.268386,-0.00104573,0.0188255,0.0594353,-0.0522973,0.125035,0.0863506
1413393237155760384,-2.4969,3.11907,2.38553,0.0147421,0.813817,-0.0203241,0.580579,0.217109,0.00858383,0.250467,-0.00105258,0.0188313,0.0594607,-0.0528425,0.125286,0.0875625
1413393237205760512,-2.48615,3.11999,2.40497,0.0224413,0.812027,-0.0147097,0.583003,0.216176,0.0224015,0.203238,-0.00103806,0.0188371,0.0594768,-0.0537242,0.125235,0.0887613
1413393237255760384,-2.475,3.1213,2.41328,0.0276985,0.810709,-0.0106769,0.584696,0.228249,0.027742,0.129774,-0.00103872,0.0188558,0.0595133,-0.0545705,0.125088,0.089913
1413393237305760512,-2.46364,3.12336,2.42008,0.031756,0.810924,-0.00717889,0.584246,0.22337,0.0561819,0.0695112,-0.00103302,0.0188731,0.05955,-0.0553307,0.125161,0.0910329
1413393237355760384,-2.45267,3.12687,2.42366,0.0341224,0.811213,-0.00402939,0.583741,0.217526,0.0873548,-0.0069148,-0.00101509,0.0188826,0.0595778,-0.0561024,0.125267,0.092141
1413393237405760512,-2.44184,3.13164,2.41322,0.0348483,0.810488,-0.00233229,0.584713,0.21389,0.10606,-0.0798618,-0.00101746,0.0189057,0.059623,-0.0570246,0.125466,0.0930175
1413393237455760384,-2.43104,3.13786,2.37283,0.032019,0.810017,-0.00250888,0.585526,0.209091,0.147361,-0.111618,-0.00100909,0.0189142,0.0596869,-0.0581196,0.126136,0.0936161
1413393237505760512,-2.42033,3.14596,2.35499,0.0252472,0.809472,-0.0049311,0.586595,0.207467,0.17357,-0.127708,-0.00100901,0.018931,0.0597131,-0.0589972,0.126405,0.0944809
1413393237555760384,-2.41018,3.15494,2.31522,0.0162394,0.809662,-0.00900457,0.586604,0.192894,0.189996,-0.116967,-0.000998164,0.0189687,0.0597377,-0.0597881,0.126873,0.0951745
1413393237605760512,-2.40043,3.1648,2.30224,0.00698035,0.809258,-0.013336,0.587261,0.182483,0.196606,-0.11145,-0.000983011,0.0189807,0.0597637,-0.0603506,0.127115,0.0960968
1413393237655760384,-2.39141,3.17462,2.29357,-0.00223657,0.810455,-0.0178263,0.585526,0.171745,0.192089,-0.0952934,-0.000971072,0.018999,0.0597778,-0.0608591,0.127192,0.0969305
1413393237705760512,-2.38276,3.18423,2.2973,-0.00965099,0.810863,-0.0210639,0.584778,0.165239,0.180629,-0.0997365,-0.000973617,0.0190215,0.0598042,-0.0613195,0.127191,0.0978349
1413393237755760384,-2.37461,3.19292,2.29205,-0.0148019,0.811763,-0.0227186,0.583358,0.156427,0.161854,-0.0829099,-0.00097413,0.0190255,0.0598352,-0.0617149,0.127193,0.0986108
1413393237805760512,-2.36663,3.20037,2.27851,-0.0179306,0.812631,-0.0231517,0.582043,0.164865,0.138012,-0.0535909,-0.000980403,0.0190474,0.059864,-0.0621873,0.127111,0.0992386
1413393237855760384,-2.3584,3.20661,2.28275,-0.0180472,0.814205,-0.0217783,0.579888,0.174263,0.115557,-0.0576159,-0.000981294,0.0190573,0.0598809,-0.0624699,0.127179,0.100173
1413393237905760512,-2.34958,3.21177,2.28431,-0.0161426,0.816296,-0.0191073,0.577092,0.173383,0.0913218,-0.0308373,-0.000975344,0.0190695,0.0599209,-0.0626084,0.127181,0.10091
1413393237955760384,-2.34079,3.21612,2.30251,-0.0139935,0.817563,-0.0171055,0.575415,0.16978,0.0662639,-0.0401522,-0.000970851,0.0190591,0.059931,-0.0622856,0.127193,0.101548
1413393238005760512,-2.3321,3.21936,2.31111,-0.00674076,0.820789,-0.0117261,0.571071,0.172779,0.0527124,-0.0419956,-0.000955577,0.0190768,0.0599709,-0.0622707,0.127241,0.102122
1413393238055760384,-2.32272,3.22244,2.3373,3.50478e-05,0.823198,-0.00667333,0.567715,0.191376,0.0548561,-0.0228728,-0.000960656,0.0190435,0.0599832,-0.0617602,0.127322,0.102462
1413393238105760512,-2.3129,3.22495,2.3443,0.00514131,0.825594,-0.00328106,0.564232,0.206208,0.0514332,-0.0181545,-0.000957901,0.0190564,0.0600044,-0.0617379,0.12739,0.103047
1413393238155760384,-2.30236,3.22741,2.37406,0.010258,0.826171,-0.00113068,0.563326,0.216328,0.0496725,0.00986936,-0.000959672,0.0190289,0.0600323,-0.0610085,0.127451,0.103253
1413393238205760512,-2.29097,3.22933,2.40346,0.0142301,0.826877,0.000228748,0.562204,0.244387,0.073633,0.0199205,-0.000963019,0.0190007,0.0600338,-0.060531,0.127616,0.103488
1413393238255760384,-2.27949,3.23202,2.41521,0.0171231,0.827138,0.00118944,0.561737,0.250298,0.0910946,0.0709486,-0.000975749,0.0189761,0.0600602,-0.0598899,0.127809,0.103529
1413393238305760512,-2.26612,3.23863,2.38329,0.0184193,0.827592,0.00228238,0.561024,0.293002,0.104898,0.128701,-0.00109053,0.018982,0.0601258,-0.0585995,0.129182,0.104318
1413393238355760384,-2.2551,3.25226,2.38611,0.0192745,0.827998,0.000828897,0.5604,0.338233,0.139601,0.15602,-0.0011017,0.0189637,0.0601361,-0.0576184,0.129788,0.104016
1413393238405760512,-2.24584,3.30204,2.18658,0.0174199,0.827583,0.00173126,0.561071,0.390131,0.1617,0.21993,-0.00130165,0.0189371,0.0601827,-0.0555972,0.133325,0.105225
1413393238455760384,-2.23548,3.38689,1.91067,0.0111197,0.826354,0.00251647,0.563036,0.412442,0.186894,0.248102,-0.00159829,0.0189215,0.060294,-0.0532216,0.139833,0.107738
1413393238505760512,-2.22434,3.4576,1.54393,-0.00261724,0.825396,0.00625409,0.564514,0.423685,0.210794,0.219465,-0.00222319,0.0188569,0.0604533,-0.0499719,0.151647,0.112832
1413393238555760384,-2.20311,3.47626,1.5083,-0.01165,0.823161,0.000619585,0.567689,0.42099,0.217687,0.168328,-0.00234767,0.0188351,0.0605102,-0.0486629,0.153764,0.113345
1413393238605760512,-2.17991,3.48321,1.56649,-0.0214492,0.821048,-0.00570302,0.570427,0.433413,0.207372,0.112021,-0.00243814,0.0188259,0.0605483,-0.0472825,0.154941,0.114001
1413393238655760384,-2.15847,3.49626,1.52382,-0.0287149,0.819628,-0.0138785,0.572008,0.441209,0.184744,0.0686031,-0.0023939,0.0188344,0.0605794,-0.0465962,0.154605,0.112704
1413393238705760512,-2.13514,3.50485,1.55161,-0.0347848,0.818483,-0.0193887,0.573149,0.441553,0.160944,0.00380654,-0.00240518,0.0188219,0.0605954,-0.0457963,0.154688,0.111875
1413393238755760384,-2.11252,3.51208,1.57654,-0.0393117,0.817513,-0.0237221,0.574077,0.443535,0.124833,-0.0336733,-0.00240938,0.0188063,0.0606257,-0.045191,0.15487,0.110853
1413393238805760512,-2.08926,3.5181,1.61626,-0.0403818,0.81661,-0.0255395,0.57521,0.447745,0.0910165,-0.0445708,-0.0024017,0.0188016,0.0606627,-0.0447901,0.155162,0.109733
1413393238855760384,-2.06584,3.52217,1.65596,-0.0381782,0.816374,-0.0249606,0.57572,0.448644,0.0462169,-0.0328008,-0.0023884,0.0188063,0.0606911,-0.0445092,0.155549,0.108638
1413393238905760512,-2.04264,3.52395,1.69255,-0.033098,0.816356,-0.022506,0.57616,0.459173,0.00841266,-0.0179041,-0.00238979,0.0188303,0.0607332,-0.0441853,0.155792,0.107411
1413393238955760384,-2.01934,3.52387,1.72787,-0.0246747,0.816688,-0.0170904,0.576299,0.452413,-0.0247986,0.000923525,-0.00238003,0.0188278,0.0607543,-0.0439169,0.156205,0.106181
1413393239005760512,-1.99573,3.52252,1.7604,-0.0153913,0.816502,-0.0117359,0.577019,0.452961,-0.0508782,0.0207115,-0.00238684,0.0188151,0.0608141,-0.0435131,0.156551,0.105019
1413393239055760384,-1.97147,3.52116,1.82215,-0.00729777,0.816878,-0.00623439,0.576731,0.458686,-0.0375791,0.0177162,-0.00238828,0.0188223,0.0608533,-0.0437773,0.157333,0.103492
1413393239105760512,-1.94793,3.51909,1.84547,-0.000654249,0.816869,-0.00220436,0.576818,0.456013,-0.0555964,0.00596418,-0.00237692,0.018837,0.0608679,-0.0434687,0.157729,0.102425
1413393239155760384,-1.92478,3.51696,1.85565,0.00414963,0.816764,0.000445201,0.576957,0.459021,-0.039781,0.0265233,-0.00238107,0.0188482,0.0609085,-0.0429361,0.157885,0.101375
1413393239205760512,-1.90131,3.51564,1.86912,0.00798921,0.817192,0.00340036,0.576301,0.464143,-0.0149349,0.00727478,-0.00239427,0.0188297,0.0609244,-0.0426449,0.158162,0.100253
1413393239255760384,-1.8781,3.5148,1.8717,0.00995039,0.816851,0.00401398,0.57675,0.460709,-0.0190213,0.0121605,-0.00238645,0.0188427,0.0609468,-0.0421821,0.158506,0.099477
1413393239305760512,-1.85481,3.51467,1.87302,0.0124042,0.817086,0.0048026,0.576363,0.466782,0.0113415,0.0192823,-0.00238957,0.0188476,0.0609642,-0.0416728,0.158746,0.0987064
1413393239355760384,-1.83139,3.51581,1.87323,0.0133033,0.817765,0.00558197,0.575372,0.469577,0.0350503,0.0288401,-0.00239322,0.018879,0.0609801,-0.0410468,0.158967,0.0981599
1413393239405760512,-1.80768,3.51778,1.87471,0.0138782,0.817986,0.00531966,0.575046,0.476562,0.0463587,0.0321778,-0.00238427,0.0188874,0.0610173,-0.040551,0.159181,0.0974986
1413393239455760384,-1.78375,3.52092,1.87037,0.0133166,0.818588,0.0046048,0.574209,0.481912,0.078759,0.0377964,-0.0023838,0.018894,0.0610365,-0.0399122,0.159544,0.0970758
1413393239505760512,-1.75937,3.52508,1.86739,0.0153997,0.818628,0.00625335,0.574084,0.49429,0.0940513,0.0685499,-0.00238536,0.0189177,0.0610696,-0.03926,0.159807,0.0966697
1413393239555760384,-1.73462,3.53055,1.86579,0.0133988,0.819014,0.00464722,0.573599,0.499331,0.117642,0.0673802,-0.00237677,0.0189218,0.0610891,-0.0386976,0.160041,0.0962715
1413393239605760512,-1.70953,3.53725,1.86708,0.00924367,0.819501,0.00249106,0.572998,0.50833,0.151655,0.0742846,-0.00238317,0.018925,0.0611146,-0.0381625,0.160291,0.0958376
1413393239655760384,-1.68388,3.54496,1.87314,0.00213959,0.819508,-0.00210215,0.57306,0.51615,0.156194,0.0933254,-0.00237188,0.0189426,0.061147,-0.0377309,0.160434,0.0954196
1413393239705760512,-1.65776,3.55298,1.88322,-0.00847382,0.819488,-0.00958573,0.572953,0.521391,0.154575,0.0916712,-0.00237143,0.0189427,0.0611716,-0.0373961,0.160486,0.0950515
1413393239755760384,-1.63146,3.56068,1.88727,-0.0170522,0.819187,-0.0150453,0.573075,0.528726,0.152714,0.0852181,-0.00237438,0.0189451,0.061189,-0.0370062,0.160657,0.0948141
1413393239805760512,-1.6049,3.56748,1.89165,-0.0224367,0.819144,-0.0186414,0.572846,0.534904,0.116788,0.0904495,-0.00236541,0.0189502,0.0612214,-0.0366183,0.160842,0.0945962
1413393239855760384,-1.57828,3.57288,1.89329,-0.0250713,0.820045,-0.0207807,0.571373,0.535498,0.097149,0.0661755,-0.00236272,0.018969,0.0612371,-0.0364272,0.160976,0.0944805
1413393239905760512,-1.55124,3.57709,1.89562,-0.0231333,0.820655,-0.0193472,0.570628,0.544248,0.0727833,0.0809711,-0.00237659,0.0189972,0.0612582,-0.0362352,0.161169,0.094495
1413393239955760384,-1.52372,3.58009,1.90077,-0.0215482,0.820684,-0.0182893,0.570683,0.556028,0.0484001,0.0907661,-0.00237585,0.0190134,0.0612763,-0.0360991,0.161529,0.0944939
1413393240005760512,-1.4956,3.58203,1.90941,-0.0174063,0.819814,-0.0154463,0.572158,0.567047,0.0298817,0.0871454,-0.00238014,0.0190388,0.0612958,-0.03597,0.161862,0.0946539
1413393240055760384,-1.46696,3.58329,1.92122,-0.0124215,0.819016,-0.0116702,0.573518,0.570311,0.0151458,0.096581,-0.00238564,0.0190607,0.0613191,-0.0358987,0.162249,0.0948949
1413393240105760512,-1.43859,3.58357,1.91216,-0.00520174,0.817383,-0.00647889,0.576035,0.573592,0.00122895,0.106366,-0.00237815,0.0190698,0.0613483,-0.0360985,0.162479,0.0950101
1413393240155760384,-1.40969,3.58417,1.92433,0.000897289,0.816127,-0.00166204,0.57787,0.574721,0.0147808,0.0727194,-0.00237759,0.0190679,0.0613804,-0.036045,0.162892,0.0953249
1413393240205760512,-1.38141,3.585,1.92062,0.00492235,0.814956,0.00197565,0.579499,0.558022,0.025979,0.0299811,-0.00238304,0.0190648,0.0614089,-0.0362502,0.163222,0.0955535
1413393240255760384,-1.35365,3.58644,1.91928,0.00783524,0.815107,0.00457921,0.57924,0.549378,0.035825,-0.02116,-0.002388,0.019075,0.0614353,-0.0364359,0.163497,0.095858
1413393240305760512,-1.32691,3.58825,1.8942,0.00689066,0.815075,0.00433366,0.579299,0.542116,0.0567169,-0.0740852,-0.00238526,0.0190717,0.0614685,-0.0369233,0.163815,0.0960971
1413393240355760384,-1.30005,3.59095,1.87807,0.00485984,0.814888,0.00331592,0.579589,0.537522,0.0680901,-0.124248,-0.00238158,0.0190936,0.0615059,-0.0373065,0.163987,0.0964267
1413393240405760512,-1.27314,3.59435,1.86287,0.000208025,0.814625,7.99609e-05,0.579989,0.548041,0.0792906,-0.164588,-0.00237495,0.0191144,0.0615515,-0.037568,0.164182,0.0967989
1413393240455760384,-1.24619,3.5981,1.84217,-0.00403131,0.813875,-0.00270821,0.581019,0.545294,0.0798931,-0.209636,-0.00237024,0.0191432,0.0615928,-0.0378577,0.164276,0.0971613
1413393240505760512,-1.21934,3.60212,1.83214,-0.00999781,0.813552,-0.0068703,0.581365,0.532371,0.0784951,-0.225177,-0.00236441,0.0191454,0.061613,-0.0380933,0.164388,0.0975207
1413393240555760384,-1.19302,3.60577,1.81597,-0.0144284,0.812794,-0.0101564,0.582284,0.526008,0.0708332,-0.18939,-0.00237941,0.0191654,0.0616329,-0.0385691,0.164619,0.0978066
1413393240605760512,-1.16697,3.60884,1.80473,-0.0178902,0.812321,-0.0131662,0.582788,0.513913,0.0555009,-0.14034,-0.00237756,0.0191758,0.0616596,-0.0390302,0.164992,0.0980824
1413393240655760384,-1.14045,3.61099,1.79614,-0.0188196,0.812263,-0.0145621,0.582806,0.554006,0.035534,-0.0739616,-0.00237919,0.0191781,0.0616745,-0.0394741,0.165512,0.0984488
1413393240705760512,-1.11191,3.61212,1.78901,-0.0177561,0.812615,-0.0152458,0.58233,0.589986,0.012246,0.0777459,-0.00241295,0.0191816,0.0616769,-0.0399989,0.165981,0.0989114
1413393240755760384,-1.08265,3.61216,1.77491,-0.013653,0.811995,-0.0140701,0.583335,0.586499,0.00179873,0.145533,-0.00241022,0.0191881,0.0616822,-0.0404422,0.16625,0.0994644
1413393240805760512,-1.05345,3.61196,1.78037,-0.00939614,0.810817,-0.0128081,0.585084,0.584341,-0.0110627,0.177353,-0.00240549,0.0191899,0.0616913,-0.0408616,0.166318,0.0996584
1413393240855760384,-1.02469,3.61159,1.79096,-0.00387785,0.809554,-0.0102603,0.586943,0.567245,-0.00683146,0.150638,-0.00242001,0.0192023,0.0617067,-0.0412814,0.16639,0.0997509
1413393240905760512,-0.99688,3.61103,1.79084,-0.000658707,0.807171,-0.00969988,0.590238,0.544462,-0.0163472,0.0912501,-0.00241355,0.0192146,0.0617325,-0.0416512,0.166181,0.0999569
1413393240955760384,-0.970567,3.61063,1.79906,0.00245777,0.804609,-0.00960117,0.593723,0.50539,-0.0104365,0.0164099,-0.00241604,0.0192279,0.0617615,-0.0421422,0.166513,0.0998564
1413393241005760512,-0.945415,3.61069,1.81158,0.00477718,0.802072,-0.00950508,0.597133,0.493953,-0.000449208,-0.0436375,-0.00242039,0.0192382,0.061798,-0.0426811,0.16672,0.0994011
1413393241055760384,-0.920851,3.61084,1.81619,0.00498123,0.79993,-0.0111157,0.59997,0.478497,-0.00106913,-0.10262,-0.00241752,0.0192524,0.0618304,-0.043096,0.166933,0.099028
1413393241105760512,-0.8973,3.61132,1.81693,0.00238054,0.79925,-0.0146118,0.600817,0.456939,0.0126016,-0.176557,-0.00242061,0.0192611,0.0618572,-0.0435825,0.167339,0.0984325
1413393241155760384,-0.874785,3.61218,1.82841,-0.00206384,0.799218,-0.0196586,0.600716,0.425295,0.0115351,-0.236334,-0.00240998,0.0192598,0.0619032,-0.0441939,0.168121,0.0973186
1413393241205760512,-0.853906,3.61273,1.81803,-0.00675285,0.799868,-0.0244034,0.599642,0.407312,0.00968588,-0.262189,-0.00241133,0.0192817,0.061934,-0.0446917,0.168245,0.0962676
1413393241255760384,-0.834221,3.61286,1.80477,-0.0106869,0.80101,-0.0289174,0.597857,0.382199,-0.00388848,-0.268625,-0.0024015,0.0192808,0.0619798,-0.0453311,0.168394,0.094892
1413393241305760512,-0.815644,3.61232,1.79137,-0.0134239,0.803332,-0.0324904,0.594493,0.365385,-0.0234704,-0.25191,-0.002391,0.0192868,0.0620031,-0.0456445,0.16799,0.0940814
1413393241355760384,-0.798043,3.61045,1.7663,-0.0130157,0.808483,-0.033992,0.587393,0.348215,-0.038114,-0.247077,-0.00238362,0.0192962,0.0620462,-0.046148,0.168534,0.0927163
1413393241405760512,-0.780827,3.60778,1.74308,-0.0129077,0.812021,-0.0353957,0.582411,0.344966,-0.0635016,-0.235477,-0.00237885,0.0193046,0.0620709,-0.0465871,0.168215,0.0916743
1413393241455760384,-0.763231,3.60408,1.73874,-0.00980655,0.814545,-0.0349488,0.578964,0.346765,-0.0885509,-0.200947,-0.00236632,0.0192959,0.0621189,-0.0473489,0.168368,0.0901079
1413393241505760512,-0.745188,3.59988,1.75325,-0.00503806,0.815673,-0.0324363,0.577582,0.348804,-0.094594,-0.165533,-0.00236309,0.019302,0.0621568,-0.0478599,0.168467,0.0888191
1413393241555760384,-0.726881,3.59501,1.77259,0.00013881,0.815068,-0.029729,0.578602,0.356054,-0.116944,-0.159998,-0.00235549,0.0193132,0.0621989,-0.0483529,0.168649,0.0878206
1413393241605760512,-0.708609,3.58955,1.78302,0.0059596,0.81335,-0.0263268,0.581148,0.358949,-0.115217,-0.158003,-0.002352,0.0193335,0.0622272,-0.0486343,0.168533,0.0868751
1413393241655760384,-0.690163,3.58428,1.80109,0.0100969,0.812092,-0.0233094,0.582976,0.352886,-0.10458,-0.144646,-0.0023546,0.019302,0.0622559,-0.0491126,0.170267,0.0856972
1413393241705760512,-0.672341,3.57896,1.80298,0.0144936,0.810599,-0.0202172,0.585073,0.348452,-0.10454,-0.145512,-0.00235513,0.0193181,0.0622838,-0.0495498,0.171446,0.0844913
1413393241755760384,-0.654811,3.57411,1.80385,0.0165373,0.810299,-0.019022,0.585475,0.345376,-0.0940542,-0.134023,-0.00235981,0.01932,0.0623149,-0.0500485,0.17202,0.0831294
1413393241805760512,-0.637562,3.56986,1.79821,0.0185294,0.811011,-0.017048,0.584488,0.34037,-0.0715619,-0.133968,-0.00235707,0.0193248,0.0623449,-0.0504791,0.173085,0.0819804
1413393241855760384,-0.620303,3.56656,1.79812,0.0195299,0.811631,-0.0154683,0.58364,0.342456,-0.0635597,-0.123266,-0.00236487,0.0193184,0.0623775,-0.0508061,0.173888,0.0811501
1413393241905760512,-0.603212,3.56403,1.79537,0.0199896,0.810736,-0.0147172,0.584886,0.338369,-0.0435344,-0.0801858,-0.00236995,0.0193226,0.0624009,-0.0510732,0.174636,0.0803505
1413393241955760384,-0.586469,3.5625,1.79249,0.0202188,0.808518,-0.0126917,0.587987,0.330758,-0.0138272,-0.0795728,-0.00236186,0.0193211,0.0624207,-0.0513036,0.175923,0.0797263
1413393242005760512,-0.569737,3.56222,1.802,0.0195524,0.806894,-0.0117867,0.590254,0.32734,-0.00387232,-0.079939,-0.00237937,0.0193259,0.0624383,-0.0514926,0.177362,0.0790921
1413393242055760384,-0.553654,3.56296,1.80438,0.019235,0.804134,-0.0103254,0.594048,0.315342,0.0308387,-0.0579792,-0.00237229,0.0193234,0.0624674,-0.0516794,0.177759,0.0785415
1413393242105760512,-0.538348,3.56485,1.80257,0.0187873,0.801696,-0.00857252,0.597375,0.298801,0.047943,-0.0496687,-0.00237363,0.0193277,0.0624992,-0.0519523,0.177579,0.0779651
1413393242155760384,-0.524777,3.56719,1.76683,0.0162394,0.798219,-0.00901319,0.602081,0.27581,0.057885,-0.0400455,-0.00237895,0.0193463,0.0625194,-0.051978,0.176706,0.0782143
1413393242205760512,-0.512835,3.5704,1.72135,0.0127192,0.79432,-0.00983037,0.607288,0.241104,0.0894901,-0.0261254,-0.00237683,0.0193626,0.0625486,-0.0519312,0.175037,0.0787688
1413393242255760384,-0.502982,3.57381,1.65462,0.0107001,0.791839,-0.00977757,0.610558,0.20694,0.0871017,-0.0197097,-0.00237937,0.0193739,0.0625731,-0.0518481,0.173274,0.0794542
1413393242305760512,-0.494829,3.57788,1.59573,0.00842887,0.790839,-0.0108301,0.611871,0.168314,0.0908663,-0.0149456,-0.00238407,0.0193957,0.0625919,-0.0519292,0.169607,0.0802968
1413393242355760384,-0.488047,3.5832,1.5622,0.00460112,0.792066,-0.0124749,0.610291,0.137998,0.109461,-0.0265016,-0.00239556,0.0194232,0.0626194,-0.0522037,0.164222,0.0815182
1413393242405760512,-0.482625,3.58863,1.54294,-0.000901494,0.795375,-0.0154183,0.605921,0.100371,0.10675,-0.0200073,-0.00239002,0.0194337,0.0626619,-0.053131,0.160502,0.0811105
1413393242455760384,-0.478052,3.59444,1.55611,-0.00719307,0.800531,-0.0192824,0.598938,0.0741732,0.102568,-0.0162836,-0.00238747,0.0194395,0.0626884,-0.05336,0.158364,0.0812735
1413393242505760512,-0.474949,3.59926,1.55468,-0.0141764,0.806598,-0.023719,0.590454,0.0531799,0.0918451,-0.025352,-0.00238668,0.0194444,0.062727,-0.0540283,0.157416,0.0803954
1413393242555760384,-0.472743,3.60279,1.53695,-0.019343,0.811936,-0.0267913,0.58281,0.0503987,0.0660581,0.00374868,-0.00237694,0.0194581,0.062758,-0.0551291,0.157214,0.0793199
1413393242605760512,-0.470741,3.60489,1.51104,-0.0231644,0.816034,-0.0292697,0.576798,0.0512463,0.0353458,0.0106234,-0.0023759,0.0194588,0.0627809,-0.0560713,0.157659,0.0783119
1413393242655760384,-0.469106,3.6045,1.43613,-0.0250693,0.818651,-0.0301365,0.572953,0.0660681,0.014485,0.0313372,-0.00237326,0.0194577,0.0628045,-0.0573586,0.160409,0.0760878
1413393242705760512,-0.466493,3.60287,1.37968,-0.0271721,0.819439,-0.0317736,0.57164,0.0819315,-0.0254645,0.0331324,-0.00236595,0.0194595,0.0628185,-0.058279,0.162372,0.0742463
1413393242755760384,-0.463053,3.59991,1.33003,-0.0310429,0.819105,-0.0333471,0.571832,0.0927034,-0.047287,0.0621649,-0.00236251,0.0194556,0.0628532,-0.0589397,0.16405,0.0727659
1413393242805760512,-0.458489,3.59582,1.3036,-0.0324393,0.818326,-0.0319201,0.57295,0.109263,-0.0859064,0.0654999,-0.00235641,0.0194503,0.0628816,-0.0595601,0.164944,0.0716529
1413393242855760384,-0.452964,3.59034,1.28616,-0.0320982,0.817625,-0.0274049,0.574203,0.122625,-0.115529,0.0859007,-0.00235362,0.0194429,0.0629116,-0.0601188,0.166267,0.070363
1413393242905760512,-0.446372,3.5839,1.28549,-0.0268269,0.817097,-0.0170902,0.575622,0.135241,-0.129507,0.0760808,-0.00235005,0.019435,0.0629356,-0.0604881,0.167,0.0698314
1413393242955760384,-0.439507,3.5764,1.28126,-0.0231304,0.817998,-0.00712591,0.574712,0.139275,-0.158554,0.0933729,-0.00234422,0.019429,0.0629562,-0.0611653,0.168489,0.0684715
1413393243005760512,-0.432204,3.56876,1.28448,-0.0210888,0.819424,0.00353525,0.572789,0.151737,-0.148108,0.0947624,-0.00234425,0.0194351,0.062985,-0.0616313,0.169165,0.0677135
1413393243055760384,-0.424158,3.56135,1.29113,-0.0212922,0.820431,0.0151634,0.571149,0.164511,-0.14467,0.082761,-0.00234158,0.019434,0.0630171,-0.0619191,0.169366,0.0672313
1413393243105760512,-0.415529,3.55419,1.29196,-0.023377,0.821609,0.0261242,0.568972,0.181043,-0.145423,0.0962379,-0.00233464,0.0194342,0.0630448,-0.0620644,0.169402,0.067431
1413393243155760384,-0.406555,3.54768,1.28166,-0.0285814,0.821272,0.037335,0.568596,0.195553,-0.11544,0.115992,-0.00234122,0.019473,0.0630644,-0.0622315,0.168166,0.0679411
1413393243205760512,-0.396742,3.54199,1.27753,-0.0348958,0.81837,0.0485124,0.571577,0.209367,-0.106248,0.141679,-0.00234769,0.0194804,0.0630862,-0.0622745,0.167248,0.0683871
1413393243255760384,-0.386149,3.53656,1.28519,-0.0406322,0.813298,0.0575716,0.577564,0.217026,-0.118206,0.141732,-0.00234118,0.0194754,0.063119,-0.0624876,0.167435,0.0683625
1413393243305760512,-0.375408,3.53133,1.28949,-0.0457406,0.807974,0.066137,0.583705,0.213658,-0.0893714,0.0931677,-0.00234579,0.0194842,0.0631402,-0.0627223,0.167456,0.0680772
1413393243355760384,-0.364758,3.52643,1.28933,-0.0515061,0.803879,0.072508,0.588106,0.212322,-0.10254,0.0429178,-0.00234917,0.019482,0.0631609,-0.0629984,0.167796,0.0676763
1413393243405760512,-0.35466,3.52146,1.28761,-0.0555774,0.799931,0.0776673,0.592444,0.19566,-0.101129,-0.00341048,-0.0023452,0.0194908,0.0631849,-0.0632086,0.167582,0.067344
1413393243455760384,-0.345471,3.51688,1.28398,-0.0596816,0.797392,0.0824734,0.594813,0.178119,-0.0855238,-0.0390671,-0.0023434,0.0194902,0.0632134,-0.0633186,0.167391,0.0669249
1413393243505760512,-0.336894,3.5124,1.28066,-0.0632327,0.7953,0.0860904,0.596731,0.160798,-0.0880669,-0.101657,-0.00234824,0.0195063,0.063231,-0.0635013,0.167281,0.0670154
1413393243555760384,-0.329075,3.50814,1.27834,-0.0664209,0.794201,0.0890352,0.597416,0.138822,-0.0890902,-0.141847,-0.00235384,0.0195136,0.0632441,-0.063637,0.167384,0.0673393
1413393243605760512,-0.322447,3.50387,1.27691,-0.0685061,0.793865,0.0916299,0.597235,0.119543,-0.0881893,-0.147054,-0.00234342,0.0195161,0.0632712,-0.0636864,0.167329,0.0675366
1413393243655760384,-0.316947,3.49973,1.27718,-0.0697757,0.7941,0.093998,0.596406,0.0935761,-0.0849313,-0.154638,-0.00234894,0.0195256,0.0632866,-0.0638099,0.167389,0.0677998
1413393243705760512,-0.312932,3.49562,1.27242,-0.0700717,0.795235,0.0964684,0.594462,0.0711863,-0.0747202,-0.121908,-0.00235098,0.0195256,0.063322,-0.0639968,0.167504,0.0677636
1413393243755760384,-0.310066,3.49176,1.26796,-0.0704854,0.796751,0.0979653,0.592134,0.0461324,-0.0756932,-0.110293,-0.00233968,0.019526,0.0633574,-0.0640779,0.167694,0.0675742
1413393243805760512,-0.308232,3.48801,1.26257,-0.0699736,0.798173,0.0995158,0.590018,0.0213494,-0.0710732,-0.0809698,-0.00234591,0.019535,0.0633852,-0.064174,0.167924,0.0673819
1413393243855760384,-0.307706,3.48471,1.25871,-0.0712969,0.798799,0.0997667,0.588968,0.00467074,-0.060134,-0.0713168,-0.00234405,0.0195388,0.0634165,-0.0643025,0.168004,0.0672174
1413393243905760512,-0.308063,3.48143,1.25464,-0.07086,0.7991,0.100566,0.588477,-0.00900218,-0.0603956,-0.0371208,-0.00233485,0.0195426,0.063434,-0.0643959,0.167962,0.0669822
1413393243955760384,-0.30904,3.47841,1.25065,-0.0708644,0.799064,0.101046,0.588443,-0.0245241,-0.0520702,-0.0262659,-0.00233083,0.019547,0.0634551,-0.0643715,0.168141,0.0668628
1413393244005760512,-0.310697,3.47564,1.25132,-0.0707135,0.799369,0.101367,0.587991,-0.0349674,-0.0436783,-0.0201623,-0.00232588,0.019558,0.0634641,-0.0643506,0.168217,0.0665519
1413393244055760384,-0.312949,3.47307,1.2515,-0.0693796,0.799009,0.101957,0.588538,-0.0462156,-0.0360022,0.000918441,-0.00230905,0.0195804,0.0634798,-0.064221,0.168501,0.0662542
1413393244105760512,-0.31602,3.47083,1.24471,-0.0683626,0.799299,0.102486,0.58817,-0.0622689,-0.0257232,0.0241294,-0.00229798,0.0195927,0.0635046,-0.0641788,0.168858,0.0661627
1413393244155760384,-0.319804,3.46907,1.23625,-0.0679672,0.799402,0.103729,0.587858,-0.0816347,-0.0139123,0.00703863,-0.00229228,0.0195899,0.063521,-0.0638654,0.169384,0.0659689
1413393244205760512,-0.324302,3.46823,1.2332,-0.0700058,0.799113,0.10589,0.587627,-0.091575,0.012762,0.0119718,-0.00228139,0.0195961,0.0635362,-0.0636895,0.170041,0.065522
1413393244255760384,-0.329745,3.4677,1.20068,-0.0722094,0.799125,0.110269,0.586537,-0.103868,0.0266537,0.0186835,-0.00228132,0.0195939,0.0635445,-0.0632947,0.169895,0.0658915
1413393244305760512,-0.335855,3.46833,1.1646,-0.0750814,0.799123,0.115949,0.585083,-0.116152,0.0461516,0.0337817,-0.00227231,0.0195872,0.0635543,-0.0628599,0.170015,0.0664928
1413393244355760384,-0.342411,3.47045,1.13273,-0.0796713,0.798861,0.122643,0.583466,-0.125028,0.0735789,0.0224813,-0.00227747,0.0195944,0.0635723,-0.0624086,0.16974,0.0670774
1413393244405760512,-0.348855,3.47382,1.12001,-0.0846614,0.79738,0.127957,0.583648,-0.128005,0.0664782,-0.0118307,-0.00228879,0.0195831,0.0635912,-0.0619927,0.169698,0.067296
1413393244455760384,-0.355926,3.47737,1.11417,-0.0904151,0.795514,0.131779,0.58448,-0.150995,0.0760396,-0.0507393,-0.00229229,0.019584,0.0636111,-0.061706,0.170557,0.0673982
1413393244505760512,-0.363969,3.48137,1.10842,-0.096241,0.794421,0.135115,0.584275,-0.16872,0.0829827,-0.110988,-0.00229768,0.0195915,0.0636295,-0.0612557,0.170663,0.0675704
1413393244555760384,-0.373021,3.48511,1.09197,-0.101446,0.793137,0.137316,0.584625,-0.183311,0.0696411,-0.175133,-0.00230165,0.0195957,0.0636546,-0.0609921,0.170137,0.0674471
1413393244605760512,-0.382848,3.4888,1.06402,-0.105922,0.793109,0.139588,0.583331,-0.191497,0.0807859,-0.20592,-0.00230481,0.0196121,0.0636765,-0.0606771,0.169473,0.0673579
1413393244655760384,-0.394024,3.49167,0.994837,-0.110014,0.793198,0.141467,0.581998,-0.192424,0.0797122,-0.177535,-0.00230732,0.0196004,0.0637079,-0.060677,0.168806,0.0662764
1413393244705760512,-0.405425,3.49459,0.944847,-0.11307,0.792315,0.143419,0.582137,-0.238228,0.0600926,-0.114885,-0.00230689,0.0196186,0.0637318,-0.0604831,0.168176,0.0657089
1413393244755760384,-0.418434,3.49725,0.936146,-0.11789,0.793014,0.142955,0.580341,-0.260712,0.0469059,-0.112171,-0.00230978,0.0196318,0.0637473,-0.0598868,0.166927,0.0660569
1413393244805760512,-0.431952,3.49901,0.923845,-0.123059,0.792919,0.14167,0.579712,-0.26341,0.0386359,-0.0501097,-0.0023171,0.0196457,0.0637735,-0.0593249,0.166083,0.0662556
1413393244855760384,-0.445762,3.50008,0.915101,-0.126579,0.793593,0.141003,0.578193,-0.275941,0.0261355,0.0383647,-0.00231684,0.01966,0.0637912,-0.0587303,0.16485,0.0664303
1413393244905760512,-0.458321,3.50124,0.930134,-0.128987,0.793543,0.139944,0.577985,-0.238538,0.0121681,0.128705,-0.0023141,0.0196638,0.0638123,-0.0580091,0.164413,0.0666681
1413393244955760384,-0.470057,3.50149,0.940026,-0.129368,0.793294,0.140001,0.578229,-0.247685,-0.00573383,0.197257,-0.00231832,0.0196736,0.0638345,-0.0572762,0.163752,0.0667205
1413393245005760512,-0.482709,3.50056,0.944563,-0.126561,0.794512,0.141922,0.576708,-0.248768,-0.0260371,0.184081,-0.00231584,0.0196839,0.0638586,-0.0564795,0.162555,0.0668053
1413393245055760384,-0.495422,3.49895,0.950292,-0.124132,0.796765,0.142778,0.573909,-0.2536,-0.038055,0.15273,-0.00231176,0.0196891,0.0638759,-0.0555023,0.161247,0.0672215
1413393245105760512,-0.507877,3.49709,0.964473,-0.121197,0.79929,0.144374,0.570616,-0.252648,-0.0435414,0.101388,-0.00231187,0.0196916,0.0638888,-0.0545884,0.160061,0.0671191
1413393245155760384,-0.519951,3.49475,0.976141,-0.119229,0.802338,0.144761,0.566641,-0.242827,-0.0557564,0.0557896,-0.00231156,0.0196956,0.0639105,-0.0537411,0.159177,0.0669486
1413393245205760512,-0.5319,3.49187,0.979523,-0.117053,0.805362,0.145386,0.562631,-0.236193,-0.0608695,0.0144095,-0.00230291,0.0196865,0.0639344,-0.0527701,0.158056,0.0670895
1413393245255760384,-0.543736,3.48864,0.971182,-0.114653,0.806586,0.146567,0.561064,-0.227206,-0.0660453,-0.0402466,-0.00231147,0.0196727,0.0639511,-0.0519781,0.157609,0.0670675
1413393245305760512,-0.555528,3.48495,0.924585,-0.112416,0.807317,0.147604,0.560192,-0.210059,-0.057399,-0.0983509,-0.00232412,0.0196783,0.0639652,-0.0510424,0.156631,0.0679718
1413393245355760384,-0.567126,3.48124,0.852879,-0.110052,0.806739,0.149048,0.561111,-0.198262,-0.051568,-0.139377,-0.00232991,0.0196881,0.0639794,-0.0502681,0.155957,0.0692165
1413393245405760512,-0.576842,3.47867,0.833624,-0.108257,0.805821,0.14996,0.562535,-0.17802,-0.0555687,-0.171012,-0.00233664,0.0196755,0.0639855,-0.0495247,0.155139,0.0697146
1413393245455760384,-0.585966,3.47634,0.816546,-0.106006,0.804329,0.151239,0.564752,-0.180517,-0.0475034,-0.212341,-0.00235767,0.0196989,0.0640048,-0.0486217,0.154017,0.0707372
1413393245505760512,-0.594885,3.47434,0.806546,-0.104228,0.802838,0.152247,0.566929,-0.178431,-0.034002,-0.237611,-0.00235624,0.0197175,0.0640355,-0.0477314,0.153461,0.0705544
1413393245555760384,-0.603708,3.47283,0.799113,-0.102268,0.800848,0.153011,0.569888,-0.173916,-0.0340722,-0.231858,-0.00236953,0.0197106,0.0640381,-0.0467119,0.153565,0.0708592
1413393245605760512,-0.611855,3.47235,0.825062,-0.100491,0.799121,0.153378,0.572523,-0.175011,-0.0220783,-0.229524,-0.00237664,0.0197053,0.0640591,-0.0456334,0.154328,0.0726593
