#timestamp, p_RS_R_x [m], p_RS_R_y [m], p_RS_R_z [m], q_RS_w [], q_RS_x [], q_RS_y [], q_RS_z [], v_RS_R_x [m s^-1], v_RS_R_y [m s^-1], v_RS_R_z [m s^-1], b_w_RS_S_x [rad s^-1], b_w_RS_S_y [rad s^-1], b_w_RS_S_z [rad s^-1], b_a_RS_S_x [m s^-2], b_a_RS_S_y [m s^-2], b_a_RS_S_z [m s^-2]
1413393212255760384,-1.07611,0.492467,1.32992,0.602657,-0.0017444,-0.797992,0.00338306,-0.00133204,0.00684264,0.00137272,-0.00030652,0.00389223,0.0136047,-0.00135496,2.69925e-05,0.000374613
1413393212305760512,-1.01822,0.423398,1.33749,0.60266,0.000701467,-0.797981,0.0053151,-0.000684566,0.00245492,0.000668154,-0.000322172,0.00398011,0.0138899,-0.0020667,4.04513e-05,0.00057431
1413393212355760384,-0.922473,0.380083,1.30637,0.60241,0.0196592,-0.797699,0.0197794,-0.00394931,-0.00203528,0.000661822,-0.000345575,0.0040507,0.014164,-0.00268183,7.10028e-05,0.00075316
1413393212405760512,-0.967018,0.391393,1.18607,0.60268,0.00778635,-0.79787,0.0109024,-0.0041544,0.000420107,-0.00107516,-0.000358543,0.00414452,0.0144638,-0.00356859,3.03025e-05,0.000974788
1413393212455760384,-0.951727,0.380541,0.910237,0.602778,0.00644941,-0.79782,0.0100899,-0.00318484,-0.00609461,-0.000314394,-0.000369318,0.00422361,0.0147224,-0.00432898,5.09782e-05,0.0011296
1413393212505760512,-0.974242,0.398858,1.52948,0.602575,0.0173255,-0.797668,0.0181712,-0.00265059,-0.00484802,0.00156176,-0.00036989,0.00431435,0.0150122,-0.00494147,1.24862e-05,0.00136631
1413393212555760384,-0.966927,0.387133,1.7298,0.602766,0.00369653,-0.79787,0.00793773,-0.00213037,-0.00645166,-0.002352,-0.000391329,0.00439405,0.015278,-0.00587381,0.000239829,0.00157567
1413393212605760512,-0.967346,0.385539,1.90455,0.602787,0.00252608,-0.797867,0.00714603,-0.00207894,0.0010413,-0.00106467,-0.000393418,0.0044815,0.0155695,-0.00651819,0.000220451,0.00163838
1413393212655760384,-0.959457,0.382542,1.83005,0.602723,0.00211496,-0.79792,0.00667504,-0.00212894,-0.00140671,-0.000552261,-0.000402346,0.00456454,0.0158541,-0.007164,0.000410835,0.00173394
1413393212705760512,-0.957179,0.38098,1.85406,0.602793,0.000553541,-0.797876,0.00596311,0.00138236,-0.00318236,-7.77932e-05,-0.000406474,0.00464416,0.0161246,-0.00780239,0.000510413,0.00160242
1413393212755760384,-0.950591,0.372838,1.24841,0.602685,0.000366462,-0.797962,0.00528115,0.000540784,0.00132669,0.000833261,-0.000409467,0.00472927,0.016402,-0.00832997,0.000861869,0.00218296
1413393212805760512,-0.980677,0.404806,1.15198,0.602302,0.0205877,-0.79773,0.0208756,-6.48855e-06,-0.00155296,0.000425269,-0.000401078,0.0047947,0.0166625,-0.00846368,0.00198464,0.00286416
1413393212855760384,-0.973763,0.401934,0.900784,0.602253,0.0168515,-0.797925,0.0179882,-0.000257194,0.00203203,0.000965847,-0.000408066,0.00486662,0.0169441,-0.00841753,0.00284477,0.00403449
1413393212905760512,-0.974747,0.401996,1.10623,0.602279,0.0171542,-0.797893,0.0182488,-0.00171816,0.00161856,-4.55609e-05,-0.000421843,0.00495411,0.0172136,-0.00926263,0.00311015,0.00438979
1413393212955760384,-0.974337,0.401442,1.0928,0.602259,0.0171063,-0.797908,0.018302,-0.00236526,-0.00187567,-0.00158195,-0.000423725,0.00502418,0.0174694,-0.00961495,0.00332511,0.00461043
1413393213005760512,-0.974037,0.40111,1.06381,0.602307,0.0170757,-0.797874,0.0182253,-0.00123072,0.00138195,-0.000807304,-0.000431658,0.0051039,0.0177233,-0.0101014,0.00345948,0.00494197
1413393213055760384,-0.973128,0.400349,0.997318,0.602335,0.0172335,-0.797842,0.018545,-0.00171683,-0.000208749,-0.00137418,-0.000451986,0.0051754,0.017978,-0.0104758,0.00360659,0.00530257
1413393213105760512,-0.962828,0.39008,0.967466,0.602584,0.0111403,-0.797857,0.0138775,-0.0019594,-0.00123563,-0.00471695,-0.00047341,0.00524839,0.0182394,-0.0113856,0.00243243,0.00400131
1413393213155760384,-0.962783,0.390041,0.975277,0.602583,0.0109639,-0.797864,0.0136728,-0.000917361,0.000285668,-0.00113762,-0.000489438,0.00532479,0.0185145,-0.012279,0.0024416,0.00427759
1413393213205760512,-0.963605,0.39086,0.97305,0.602589,0.011297,-0.79785,0.0139418,0.000744712,0.001246,-2.63475e-05,-0.000488467,0.00538913,0.0187309,-0.0126021,0.0025793,0.00431131
1413393213255760384,-0.964453,0.391711,1.02637,0.602595,0.0114715,-0.797843,0.0139673,0.00217421,0.000218008,0.00278326,-0.000492528,0.00546623,0.018983,-0.0132092,0.00260075,0.00453556
1413393213305760512,-0.965405,0.392472,1.00976,0.602597,0.0120786,-0.797826,0.014343,0.0014751,-0.00169042,0.00313468,-0.000500674,0.00553438,0.0192055,-0.0135045,0.00273117,0.00462454
1413393213355760384,-0.966973,0.394372,1.01814,0.602548,0.013182,-0.79782,0.0156664,0.00250077,0.00223609,0.00116527,-0.000505155,0.00559384,0.0194424,-0.0134995,0.00294514,0.00493649
1413393213405760512,-0.940936,0.366214,0.928722,0.603148,-0.00496874,-0.797613,0.000927081,0.00204426,0.00175117,0.00359921,-0.000535565,0.00568212,0.0196967,-0.0157903,-0.00282814,-0.00130666
1413393213455760384,-0.939155,0.364173,0.921692,0.603314,-0.00522721,-0.797487,0.000733294,0.000500917,-0.00123891,0.0017074,-0.000550294,0.00574696,0.0199368,-0.0168331,-0.00470608,-0.00396945
1413393213505760512,-0.937963,0.363558,0.862887,0.603275,-0.00517696,-0.797517,0.000512667,-0.0011531,-0.000546054,0.00210406,-0.000533136,0.00581308,0.0201846,-0.0172761,-0.00460742,-0.0051919
1413393213555760384,-0.944591,0.369588,1.01851,0.603105,-0.00167395,-0.797654,0.00309461,-0.000475364,0.001471,0.00249759,-0.000530824,0.00588183,0.0204262,-0.0172492,-0.00434341,-0.00377586
1413393213605760512,-0.944383,0.36972,1.01118,0.603087,-0.00142931,-0.797667,0.00337345,0.000494505,0.00265208,0.00157421,-0.000522052,0.00595106,0.0206652,-0.0174499,-0.00434949,-0.00393523
1413393213655760384,-0.943341,0.368813,1.02044,0.60311,-0.0015792,-0.797651,0.00307662,0.000405369,0.000608197,-0.000147997,-0.000520112,0.00599738,0.0208812,-0.0173845,-0.00439296,-0.0041765
1413393213705760512,-0.942309,0.368129,1.01884,0.603132,-0.00184897,-0.797634,0.00306601,0.000527845,-0.00157744,-0.000653173,-0.000529175,0.00607389,0.0211053,-0.0175054,-0.00458796,-0.00367143
1413393213755760384,-0.941707,0.367737,1.01237,0.603079,-0.00193769,-0.797674,0.00296672,0.00101767,-0.000180365,-0.00229504,-0.000521513,0.00611429,0.0213097,-0.0175301,-0.00432125,-0.00407374
1413393213805760512,-0.940866,0.367407,1.00678,0.603108,-0.00218316,-0.797652,0.00279756,5.80735e-05,0.000153058,-0.00503035,-0.000533106,0.0061812,0.0215578,-0.0187579,-0.00461303,-0.0035005
1413393213855760384,-0.940434,0.366696,1.0084,0.603147,-0.00233348,-0.797622,0.00275113,-0.000879852,-0.000962873,-0.00303659,-0.000529535,0.00626824,0.0218337,-0.0203274,-0.00491793,-0.00342228
1413393213905760512,-0.940095,0.366153,1.00654,0.603102,-0.00237353,-0.797656,0.00266642,5.56169e-05,-0.00299902,-0.00324287,-0.000523449,0.00632874,0.0220663,-0.0212094,-0.00516568,-0.00372624
1413393213955760384,-0.940005,0.365886,1.00621,0.603047,-0.00234268,-0.797698,0.00271175,0.00114611,-0.00334946,-0.000579719,-0.000534562,0.00641255,0.0222853,-0.0218194,-0.00558057,-0.00388532
1413393214005760512,-0.939767,0.365294,1.00527,0.602948,-0.00236177,-0.797773,0.00277944,0.00110089,0.010484,0.00279971,-0.000541484,0.00648616,0.0224853,-0.0226104,-0.00547655,-0.00420286
1413393214055760384,-0.939208,0.364705,1.00371,0.603114,-0.00264459,-0.797647,0.00243437,0.00277356,0.007255,0.000565711,-0.000539669,0.00655934,0.022715,-0.0230721,-0.00584379,-0.00410697
1413393214105760512,-0.939341,0.36482,1.00675,0.602873,-0.0025574,-0.797829,0.00252964,0.000476568,0.00271956,0.00178184,-0.000537264,0.00663923,0.0229856,-0.0238707,-0.0062002,-0.00399411
1413393214155760384,-0.939492,0.364892,1.00624,0.603073,-0.00260611,-0.797678,0.00252358,0.00268773,0.000160078,0.000653937,-0.000557649,0.00669829,0.0231421,-0.0238142,-0.00623533,-0.00440764
1413393214205760512,-0.939009,0.36442,1.00757,0.603013,-0.00269059,-0.797722,0.0026333,0.000275864,0.00224133,0.000383688,-0.000575075,0.00677399,0.0233892,-0.0249698,-0.00692768,-0.00381038
1413393214255760384,-0.938436,0.363771,1.00154,0.603121,-0.00255308,-0.797643,0.00236609,-3.73554e-05,0.000856254,0.000412243,-0.000579294,0.00681782,0.0235632,-0.0247512,-0.00676048,-0.00440186
1413393214305760512,-0.938522,0.363932,0.998213,0.603091,-0.00253054,-0.797664,0.00263317,0.000452882,-0.00309492,-0.00101298,-0.000599418,0.00685888,0.0237473,-0.0244728,-0.00657063,-0.00485268
1413393214355760384,-0.937672,0.363133,0.992044,0.603119,-0.0026118,-0.797643,0.00251461,-3.04252e-05,0.00144521,0.000810163,-0.000622018,0.00693716,0.0239696,-0.025277,-0.00673374,-0.00507667
1413393214405760512,-0.937661,0.363056,0.991181,0.603069,-0.00254979,-0.797681,0.0024199,0.000208871,-0.000546779,9.65707e-05,-0.00057947,0.00698177,0.0241647,-0.0247463,-0.00535108,-0.00573096
1413393214455760384,-0.937805,0.363287,0.991703,0.603115,-0.00229637,-0.797646,0.00277373,-0.000628551,0.000710462,0.00112022,-0.0005968,0.00702847,0.0243948,-0.0253735,-0.00581051,-0.00517887
1413393214505760512,-0.937572,0.363051,0.992095,0.603075,-0.00216019,-0.797677,0.00273822,-0.00117812,8.89962e-05,0.00274497,-0.000590721,0.00711306,0.0246248,-0.0265253,-0.00590461,-0.00461493
1413393214555760384,-0.937362,0.36262,0.994291,0.603063,-0.00196204,-0.797686,0.00295859,-0.000827482,-0.00126588,0.00107151,-0.000566561,0.00713705,0.0248156,-0.0274868,-0.00490562,-0.0046283
1413393214605760512,-0.937923,0.363211,0.975999,0.603033,-0.00164098,-0.797709,0.00303544,-0.0025257,0.000682876,0.000323081,-0.000578489,0.00721879,0.0250044,-0.0270425,-0.00523585,-0.00471663
1413393214655760384,-0.938918,0.364363,0.977886,0.603058,-0.00117061,-0.797689,0.00349077,-4.6378e-05,-0.0019213,0.00118972,-0.000571601,0.00727878,0.0251995,-0.0273715,-0.00493503,-0.00402303
1413393214705760512,-0.94051,0.365968,0.981496,0.603077,-0.000307503,-0.797672,0.00418751,-0.00149307,-0.000384265,-0.00166041,-0.000593092,0.0073437,0.0254353,-0.0276347,-0.00534936,-0.00305522
1413393214755760384,-0.943943,0.369633,1.0121,0.603009,0.00115714,-0.797716,0.00527556,-3.22893e-06,-0.00136894,-0.000932463,-0.000595266,0.00738871,0.0256047,-0.0273626,-0.00473633,-0.00188077
1413393214805760512,-0.948582,0.374319,0.974318,0.602951,0.00321995,-0.797741,0.00696557,0.000755769,-0.00024439,-0.0011598,-0.000613554,0.00746595,0.025845,-0.0282093,-0.00480465,0.00126291
1413393214855760384,-0.952623,0.378349,1.12393,0.602834,0.00498021,-0.797808,0.00829458,0.000187736,0.000926936,-0.00169106,-0.000657229,0.00751982,0.0260004,-0.028582,-0.00412459,0.00361559
1413393214905760512,-0.952133,0.379277,0.946213,0.602736,0.00583177,-0.797869,0.00899687,0.00149613,-0.000330467,-0.00149939,-0.000670224,0.00761153,0.0261674,-0.0285541,-0.00418017,0.00531132
1413393214955760384,-0.95609,0.3825,0.916564,0.602595,0.00701681,-0.797954,0.00998328,0.000578634,0.000586377,-0.000422849,-0.000693712,0.00760296,0.0263578,-0.027726,-0.00314209,0.00857637
1413393215005760512,-0.957061,0.383762,0.865048,0.602509,0.00760479,-0.798008,0.0104284,0.000646539,0.00130455,0.00045744,-0.000684072,0.00766845,0.02658,-0.0280499,-0.00215376,0.0114515
1413393215055760384,-0.933365,0.355752,0.961465,0.602946,-0.00504983,-0.797766,0.000324641,-0.00081964,-0.00241427,0.00225442,-0.000705559,0.00776851,0.0267214,-0.0309555,-0.00708621,0.00116255
1413393215105760512,-0.960432,0.387382,0.895221,0.602088,0.00959721,-0.798281,0.0120996,-0.000932174,-0.00751822,-0.00373159,-0.000713013,0.00778916,0.0269352,-0.027722,-0.000331393,0.0152734
1413393215155760384,-0.936114,0.358977,0.934849,0.602754,-0.00274311,-0.797919,0.0024014,-0.000591833,-0.00215622,-0.00195656,-0.00074156,0.00786405,0.0270943,-0.0308562,-0.00669484,0.00906323
1413393215205760512,-0.940136,0.364293,0.846462,0.6024,0.000246445,-0.798182,0.00446455,-0.00181721,-0.00313672,-0.00405517,-0.000745143,0.00795033,0.027312,-0.030708,-0.00516159,0.0128704
1413393215255760384,-0.964809,0.392475,0.805235,0.601732,0.0127436,-0.798465,0.0144726,-0.00171342,-0.00282128,-0.00438908,-0.000762366,0.00797038,0.0274595,-0.027032,-0.0015248,0.0272812
1413393215305760512,-0.955818,0.380289,0.825144,0.601962,0.00713581,-0.798431,0.00994711,-0.00323248,-0.00208003,-0.00410199,-0.00075992,0.00799822,0.0276281,-0.0282819,-0.00405967,0.0232287
1413393215355760384,-0.962425,0.386463,0.849306,0.601649,0.00986341,-0.798609,0.0120855,-0.00132729,-0.0035664,-0.00387143,-0.000834453,0.00808073,0.0278097,-0.0275793,-0.00462025,0.0296139
1413393215405760512,-0.971836,0.397726,0.80421,0.600943,0.0146789,-0.799002,0.0157888,-0.0024416,-0.00126783,-0.00201671,-0.000809188,0.00809561,0.0280146,-0.0236227,-0.00151939,0.040076
1413393215455760384,-0.971748,0.397461,0.776908,0.600515,0.0148077,-0.799322,0.0157448,-0.00504759,-0.000993429,0.000318708,-0.000782473,0.00813751,0.0282038,-0.0218998,0.000203696,0.0453529
1413393215505760512,-0.963238,0.382662,0.938899,0.600296,0.00786253,-0.79967,0.0105483,-0.00242822,-0.0023561,-0.00143204,-0.000786291,0.00820733,0.0283512,-0.0212524,0.000412582,0.0482184
1413393215555760384,-0.960905,0.380891,0.878672,0.599873,0.00703931,-0.800004,0.009822,-0.00675426,-0.0034257,0.00100754,-0.000790089,0.00829104,0.0285456,-0.0204566,0.000311883,0.055082
1413393215605760512,-0.958562,0.382541,0.689841,0.599244,0.00520827,-0.800504,0.00855535,-0.00978344,-0.00469014,0.00405125,-0.000789754,0.00833047,0.028741,-0.0166385,0.00286206,0.0702136
1413393215655760384,-0.955358,0.383447,0.624857,0.598145,0.00293247,-0.801347,0.00762789,-0.00919495,-0.0015823,0.00445209,-0.000802003,0.00836184,0.0289274,-0.011386,0.00882605,0.0912149
1413393215705760512,-0.94667,0.37488,0.627695,0.59743,-0.00117384,-0.801907,0.00471532,-0.00435182,-0.0044101,-0.0021198,-0.000775814,0.00844741,0.0290958,-0.0124057,0.010447,0.0940746
1413393215755760384,-0.941308,0.370044,0.611943,0.596885,-0.00373953,-0.802315,0.00253967,-0.00128996,-0.00143741,-0.00364661,-0.000776018,0.00843026,0.0292099,-0.011808,0.0104974,0.0959021
1413393215805760512,-0.937192,0.36603,0.615018,0.596262,-0.00525399,-0.802773,0.00113353,0.00281777,-0.00325508,0.0113154,-0.00077487,0.00852287,0.029441,-0.0117756,0.0103428,0.0998129
1413393215855760384,-0.933473,0.36276,0.612281,0.596051,-0.00636387,-0.802921,0.000154209,-8.08407e-05,0.00034626,0.00913196,-0.000773983,0.00855345,0.0295603,-0.0128855,0.00882576,0.0998454
1413393215905760512,-0.932416,0.360157,0.6653,0.595598,-0.0071909,-0.803251,-0.000365027,-5.11592e-05,-6.84398e-05,0.00934881,-0.000775778,0.00860722,0.0297716,-0.0114911,0.00840785,0.107907
1413393215955760384,-0.929579,0.357435,0.659184,0.595577,-0.00839662,-0.803255,-0.000647964,0.00388979,0.00308553,0.00748554,-0.00079837,0.00873032,0.029943,-0.0131751,0.00769311,0.107997
1413393216005760512,-0.928037,0.357832,0.597792,0.59529,-0.00847033,-0.803466,-0.00136568,0.00936744,0.00296247,0.00862245,-0.000803263,0.00877666,0.0301194,-0.011141,0.00503101,0.118073
1413393216055760384,-0.926438,0.358172,0.541126,0.594983,-0.00839082,-0.803692,-0.00208993,0.00127195,0.00413971,0.00454297,-0.000831858,0.00882728,0.030255,-0.00834045,0.00545945,0.126116
1413393216105760512,-0.924969,0.357408,0.526218,0.594627,-0.00890553,-0.80395,-0.00214726,0.000119024,0.00373788,-0.00596964,-0.000811534,0.00889545,0.0304241,-0.00708682,0.00620791,0.132695
1413393216155760384,-0.923232,0.355514,0.540458,0.595211,-0.00948644,-0.803508,-0.00305628,-0.00164952,0.00150065,-0.00234253,-0.000812873,0.00895055,0.0305376,-0.00792203,0.00556257,0.129618
1413393216205760512,-0.919318,0.351815,0.538533,0.59535,-0.0104326,-0.803391,-0.00373511,-0.00429401,0.00388559,-0.00471179,-0.000809884,0.00902088,0.0306785,-0.00986644,0.00629126,0.120785
1413393216255760384,-0.91568,0.348306,0.525103,0.594668,-0.0111015,-0.803884,-0.00428311,-0.0126234,0.00274314,0.000942437,-0.000763159,0.00906822,0.0308002,-0.0115207,0.00776712,0.111681
1413393216305760512,-0.913779,0.346694,0.505897,0.593789,-0.0116918,-0.804523,-0.00463657,-0.00950011,-0.00525164,-0.000547732,-0.000745674,0.00912414,0.0309658,-0.0131926,0.00676959,0.107185
1413393216355760384,-0.910578,0.343822,0.499173,0.593815,-0.0124389,-0.804492,-0.0047323,-0.00146201,0.00022434,-0.00337001,-0.000783621,0.00915955,0.0311763,-0.0165071,0.00550605,0.0983359
1413393216405760512,-0.907061,0.340857,0.47497,0.593684,-0.0130649,-0.804576,-0.00521243,-0.00206755,-0.0121122,-0.00739552,-0.000750682,0.00921127,0.0313505,-0.019317,0.00563038,0.0904838
1413393216455760384,-0.905706,0.33903,0.475141,0.594008,-0.0129347,-0.804335,-0.0057407,-0.00681717,-0.0061518,0.0107311,-0.000700383,0.00928648,0.0315585,-0.0223777,0.00489092,0.0854107
1413393216505760512,-0.90384,0.33712,0.467653,0.592527,-0.0137795,-0.805407,-0.0065302,0.00125222,0.00486874,0.0121479,-0.000758874,0.00932057,0.0317104,-0.0236907,0.00416809,0.0806919
1413393216555760384,-0.902775,0.336335,0.462611,0.591877,-0.0143155,-0.805867,-0.00741373,0.000163086,0.00936371,-0.0197962,-0.000682337,0.00933492,0.0318426,-0.0236789,0.00574248,0.0791669
1413393216605760512,-0.900973,0.335764,0.447804,0.591689,-0.0158344,-0.805979,-0.0072211,0.000408149,0.0193486,-0.0124839,-0.000688191,0.0093836,0.0320049,-0.0259786,0.00457669,0.0734109
1413393216655760384,-0.899126,0.334313,0.449641,0.592513,-0.0164969,-0.805344,-0.00876441,0.00084521,0.00755884,0.0231612,-0.000717846,0.00942822,0.0321506,-0.0279149,0.00387482,0.0682621
1413393216705760512,-0.897583,0.333756,0.456543,0.593275,-0.0164601,-0.804751,-0.011437,0.0193436,0.0201742,0.0356409,-0.000677346,0.00947254,0.0323171,-0.0293431,0.0027198,0.0662994
1413393216755760384,-0.895341,0.332508,0.477203,0.593555,-0.0164864,-0.804484,-0.0150729,0.013028,0.0184897,0.0480217,-0.00068309,0.00952679,0.0324673,-0.0308048,0.00251592,0.0621342
1413393216805760512,-0.892982,0.333046,0.44093,0.594206,-0.0165194,-0.803947,-0.0177801,0.0190924,0.00829103,0.0875355,-0.000703699,0.00958167,0.0326543,-0.0319955,0.00192528,0.0621598
1413393216855760384,-0.889645,0.332498,0.41114,0.594991,-0.016694,-0.803297,-0.0205125,0.0284226,0.00998559,0.0934431,-0.000687488,0.00966433,0.032746,-0.0321118,0.00195373,0.0605744
1413393216905760512,-0.887156,0.330735,0.433062,0.596659,-0.0174771,-0.801969,-0.0231904,0.0397329,-0.00349224,0.129277,-0.000671166,0.00969738,0.0328748,-0.0307454,0.00219097,0.062524
1413393216955760384,-0.884869,0.321307,0.671516,0.596257,-0.0177871,-0.802128,-0.0274442,0.0477481,-0.00540389,0.143847,-0.000689489,0.00970915,0.0330047,-0.0272181,0.00223425,0.0709341
1413393217005760512,-0.895116,0.347949,0.43074,0.5975,-0.00796568,-0.801528,-0.021984,0.064512,-0.0141845,0.161391,-0.000725898,0.0097008,0.0331226,-0.0378854,0.00581899,0.0361921
1413393217055760384,-0.876663,0.316081,0.68622,0.592942,-0.0194234,-0.804391,-0.0315942,0.0682759,-0.0412119,0.225864,-0.000657629,0.00970821,0.0332278,-0.021902,0.00284004,0.0840672
1413393217105760512,-0.896579,0.349952,0.602762,0.594694,-0.0042234,-0.80369,-0.0200972,0.0858259,-0.0440856,0.273559,-0.000812732,0.00972762,0.0333899,-0.0387329,0.00798833,0.0330295
1413393217155760384,-0.865094,0.308731,0.726208,0.589851,-0.0217375,-0.806576,-0.0322488,0.086382,-0.0721311,0.276089,-0.000613415,0.00974931,0.0335422,-0.0185426,0.00910508,0.096609
1413393217205760512,-0.894132,0.349489,0.708446,0.591809,-0.0023983,-0.805883,-0.0176234,0.103661,-0.0804786,0.262198,-0.000828278,0.00980636,0.0336316,-0.0337374,0.0113879,0.0541854
1413393217255760384,-0.852384,0.30192,0.734248,0.588843,-0.0212889,-0.807304,-0.0327341,0.0994015,-0.0964811,0.243567,-0.000673561,0.00981658,0.0338157,-0.0158522,0.0167861,0.112752
1413393217305760512,-0.851356,0.300569,0.7629,0.588142,-0.0200657,-0.807855,-0.0325248,0.107707,-0.112289,0.20439,-0.000686112,0.0098782,0.0339448,-0.0153098,0.0258565,0.118339
1413393217355760384,-0.857464,0.302618,0.802136,0.587247,-0.0192791,-0.808545,-0.032014,0.116164,-0.131493,0.169776,-0.000687901,0.00991964,0.0341026,-0.0154157,0.0264903,0.121119
1413393217405760512,-0.850477,0.297239,0.775025,0.5865,-0.0187987,-0.809079,-0.0324858,0.131993,-0.139024,0.156419,-0.00068785,0.00996252,0.0342367,-0.0180028,0.0248085,0.11599
1413393217455760384,-0.839646,0.288648,0.746938,0.585914,-0.0188713,-0.80951,-0.0323063,0.140982,-0.164573,0.139771,-0.000679721,0.0100293,0.0343517,-0.0207055,0.0231586,0.107992
1413393217505760512,-0.828757,0.277949,0.75967,0.585929,-0.017884,-0.809529,-0.0321139,0.14172,-0.186129,0.126858,-0.00067288,0.0100716,0.0344994,-0.024185,0.029102,0.0971279
1413393217555760384,-0.822722,0.26826,0.797951,0.586736,-0.0172724,-0.808953,-0.0322283,0.16269,-0.187026,0.103577,-0.000690184,0.0101367,0.0346475,-0.0290496,0.0256708,0.0797519
1413393217605760512,-0.8148,0.260544,0.790062,0.587896,-0.0150519,-0.808173,-0.031771,0.165021,-0.220126,0.0858564,-0.000696362,0.0101639,0.0347659,-0.0349613,0.0205161,0.0585101
1413393217655760384,-0.807614,0.253657,0.769345,0.588437,-0.0125915,-0.807888,-0.0300148,0.177715,-0.223945,0.0945849,-0.000718413,0.0101877,0.0348946,-0.0372821,0.0195038,0.0465643
1413393217705760512,-0.798567,0.242131,0.777124,0.588696,-0.0125909,-0.807695,-0.0301216,0.181875,-0.242151,0.138692,-0.000689325,0.0102076,0.0350094,-0.036749,0.0210782,0.0445684
1413393217755760384,-0.789724,0.230578,0.783623,0.589149,-0.0116736,-0.807405,-0.0294193,0.189434,-0.270609,0.184519,-0.000666418,0.0102078,0.0351554,-0.0364045,0.0213602,0.0418794
1413393217805760512,-0.779916,0.216774,0.794218,0.588999,-0.0119599,-0.807522,-0.0290718,0.197201,-0.275375,0.217334,-0.000691522,0.0102583,0.0352817,-0.0366974,0.0208242,0.0431632
1413393217855760384,-0.769546,0.202225,0.80487,0.588989,-0.0127236,-0.807533,-0.0286509,0.206199,-0.288417,0.241538,-0.000704473,0.0102802,0.0353944,-0.0369819,0.0211118,0.0430478
1413393217905760512,-0.759195,0.186843,0.818645,0.589068,-0.0128114,-0.807492,-0.028118,0.205127,-0.315557,0.278494,-0.00071263,0.0102988,0.0355226,-0.0374914,0.0212971,0.0432241
1413393217955760384,-0.748538,0.170669,0.83317,0.58974,-0.0130996,-0.806999,-0.0280798,0.213875,-0.318056,0.296483,-0.000712017,0.010366,0.0356659,-0.0390228,0.0218063,0.0424211
1413393218005760512,-0.73759,0.153903,0.847672,0.58943,-0.014268,-0.807243,-0.0269649,0.219574,-0.339474,0.271677,-0.000729308,0.0103946,0.035757,-0.0393872,0.0215322,0.0410733
1413393218055760384,-0.726371,0.136493,0.860072,0.589945,-0.0163924,-0.80692,-0.02401,0.22337,-0.352725,0.218431,-0.000761405,0.0104483,0.0359171,-0.04017,0.0209074,0.0414096
1413393218105760512,-0.714952,0.118763,0.870214,0.589575,-0.0191727,-0.807219,-0.0207865,0.228142,-0.345231,0.189714,-0.000759533,0.0104948,0.0360056,-0.0410496,0.0213783,0.0396624
1413393218155760384,-0.70336,0.100874,0.878279,0.589604,-0.0231461,-0.807211,-0.0155655,0.22989,-0.364481,0.138481,-0.000751219,0.010523,0.0361039,-0.0409122,0.0222779,0.0371954
1413393218205760512,-0.691475,0.0827747,0.884196,0.589967,-0.0269712,-0.806923,-0.00930915,0.240272,-0.359554,0.0873211,-0.000778455,0.0105603,0.03625,-0.0416972,0.0222017,0.035937
1413393218255760384,-0.679014,0.0656304,0.887178,0.589207,-0.0316416,-0.807355,-0.00345067,0.258259,-0.32655,0.0392111,-0.000788034,0.010634,0.0363588,-0.0423618,0.0228952,0.0359402
1413393218305760512,-0.6662,0.0491693,0.887837,0.587892,-0.0352472,-0.808171,0.00107649,0.251617,-0.32773,0.00386786,-0.000771405,0.0106386,0.0364461,-0.0424668,0.0230029,0.0333517
1413393218355760384,-0.653273,0.0337703,0.886823,0.587674,-0.0350448,-0.808337,0.00144839,0.262254,-0.29917,-0.0358269,-0.000824878,0.010674,0.0366273,-0.0421198,0.023972,0.034498
1413393218405760512,-0.639962,0.0196278,0.884266,0.588338,-0.0328784,-0.80794,-0.00329293,0.270554,-0.261586,-0.0613983,-0.000812353,0.0107112,0.0367102,-0.0414027,0.0242567,0.0313087
1413393218455760384,-0.626343,0.00635308,0.880172,0.588501,-0.0296037,-0.807909,-0.00855493,0.273492,-0.267615,-0.09087,-0.000828928,0.0107678,0.0368731,-0.0426341,0.0242429,0.0318782
1413393218505760512,-0.612289,-0.00638765,0.87531,0.589208,-0.0262148,-0.80744,-0.0136921,0.282597,-0.250654,-0.0843908,-0.000843861,0.0108366,0.0370213,-0.0429334,0.0241945,0.0313509
1413393218555760384,-0.597868,-0.0188868,0.870957,0.589594,-0.0233881,-0.807131,-0.0192732,0.292576,-0.23314,-0.0819599,-0.000839314,0.0108286,0.0370548,-0.0410352,0.0253698,0.0318366
1413393218605760512,-0.583245,-0.0313824,0.867023,0.590638,-0.0207731,-0.80635,-0.0227035,0.293732,-0.262207,-0.0737541,-0.000846934,0.0108495,0.0371984,-0.0414233,0.0256852,0.0305838
1413393218655760384,-0.568331,-0.0441525,0.863201,0.591321,-0.0190069,-0.805824,-0.0250082,0.305608,-0.254382,-0.0733986,-0.000864336,0.0108497,0.0373324,-0.0415697,0.0277486,0.0319705
1413393218705760512,-0.552859,-0.0573252,0.860323,0.591422,-0.0196004,-0.805725,-0.0253822,0.313681,-0.25189,-0.0607078,-0.00083911,0.0108717,0.0373965,-0.0422494,0.029012,0.0305568
1413393218755760384,-0.537079,-0.0708815,0.858026,0.589898,-0.018512,-0.806841,-0.0261974,0.315807,-0.280951,-0.0577502,-0.000800883,0.0108958,0.0375114,-0.0434729,0.0306746,0.0295858
1413393218805760512,-0.521006,-0.0845034,0.855039,0.585722,-0.0194413,-0.809905,-0.0246342,0.327027,-0.269067,-0.0556938,-0.000884648,0.010974,0.0376572,-0.0463746,0.0320947,0.0308739
1413393218855760384,-0.504746,-0.0984383,0.852501,0.579097,-0.023311,-0.81466,-0.0208095,0.323683,-0.269815,-0.0471161,-0.000815049,0.0109583,0.0377373,-0.0473347,0.0340577,0.030408
1413393218905760512,-0.488863,-0.112563,0.850694,0.572361,-0.0259357,-0.819418,-0.0168534,0.309253,-0.284409,-0.0435461,-0.000816533,0.0110026,0.0378686,-0.0490852,0.0352668,0.0311242
1413393218955760384,-0.473661,-0.126273,0.84906,0.566635,-0.0282163,-0.823367,-0.0140389,0.293984,-0.261256,-0.0159627,-0.000888215,0.0110539,0.038004,-0.0509792,0.0358198,0.0313791
1413393219005760512,-0.459644,-0.139356,0.848344,0.562987,-0.0302676,-0.825819,-0.01239,0.268734,-0.250472,0.00757311,-0.000852604,0.011101,0.0381024,-0.0533531,0.0371383,0.0316717
1413393219055760384,-0.447125,-0.151935,0.848824,0.561147,-0.0311233,-0.827066,-0.0103976,0.238293,-0.250286,0.0310806,-0.000862813,0.0111235,0.0382261,-0.0551411,0.0390854,0.0299391
1413393219105760512,-0.435871,-0.164111,0.850896,0.561534,-0.0309246,-0.826811,-0.0103418,0.215652,-0.229167,0.0622311,-0.000894824,0.0111854,0.0383255,-0.0569866,0.0406224,0.0283622
1413393219155760384,-0.425802,-0.175423,0.855209,0.562696,-0.0312169,-0.826021,-0.00944068,0.190838,-0.21767,0.0717505,-0.000886837,0.011219,0.038414,-0.0582214,0.0426074,0.0270239
1413393219205760512,-0.41684,-0.186352,0.859448,0.563553,-0.030769,-0.825458,-0.00894791,0.168265,-0.215376,0.0896661,-0.000897306,0.0112474,0.0385042,-0.0590719,0.0441986,0.0267314
1413393219255760384,-0.408932,-0.196943,0.865535,0.565182,-0.0303251,-0.824368,-0.00823802,0.148422,-0.20205,0.112808,-0.000932227,0.0112973,0.0386074,-0.0607026,0.0447691,0.0227035
1413393219305760512,-0.402217,-0.206381,0.872691,0.566301,-0.0291917,-0.823644,-0.00788389,0.11909,-0.182863,0.119124,-0.000931658,0.0113669,0.0387484,-0.0625984,0.0469168,0.0207718
1413393219355760384,-0.396949,-0.215546,0.877413,0.566659,-0.0288793,-0.823416,-0.00717853,0.0825305,-0.179329,0.125399,-0.000947252,0.0114385,0.03883,-0.0638161,0.0478215,0.0192598
1413393219405760512,-0.393472,-0.224251,0.882777,0.567213,-0.0290237,-0.823042,-0.00545109,0.0543394,-0.165164,0.117486,-0.000980491,0.0114168,0.0389474,-0.0621746,0.0524613,0.0207305
1413393219455760384,-0.391792,-0.231391,0.887275,0.568365,-0.0286925,-0.822259,-0.00538351,0.0151183,-0.14788,0.0702304,-0.000963028,0.0114218,0.0389766,-0.0606158,0.0552004,0.0209797
1413393219505760512,-0.392047,-0.237872,0.890984,0.569369,-0.0281745,-0.821582,-0.00540384,-0.0131942,-0.143061,0.0258879,-0.00100233,0.011464,0.0391232,-0.0614383,0.0575415,0.0247521
1413393219555760384,-0.393517,-0.243945,0.893509,0.571004,-0.0277404,-0.820464,-0.00498753,-0.0363687,-0.132194,-0.00748768,-0.00100035,0.011485,0.0391648,-0.0616999,0.0582313,0.0207369
1413393219605760512,-0.404531,-0.18886,0.78665,0.572217,-0.015094,-0.819934,0.00691381,-0.032003,-0.122295,-0.00721919,-0.00120111,0.0115055,0.0392514,-0.0592975,0.114643,0.0264458
1413393219655760384,-0.406631,-0.194742,0.785816,0.574453,-0.0146262,-0.818374,0.00733291,-0.0445758,-0.116338,0.0253884,-0.00124243,0.0115839,0.0393793,-0.0625381,0.11455,0.0280721
1413393219705760512,-0.409509,-0.200322,0.788217,0.577326,-0.0139962,-0.816368,0.00654576,-0.0602018,-0.100245,0.0845575,-0.00128973,0.011593,0.0394457,-0.0633561,0.114519,0.0288724
1413393219755760384,-0.413251,-0.205309,0.795693,0.580428,-0.0128804,-0.814192,0.00543532,-0.0832486,-0.0904476,0.155905,-0.0012209,0.0116414,0.0395288,-0.0643386,0.117748,0.0262131
1413393219805760512,-0.416693,-0.21077,0.805622,0.583606,-0.0113143,-0.811953,0.00291224,-0.068646,-0.0809358,0.207555,-0.00123856,0.0116694,0.0396634,-0.0643121,0.119692,0.0256401
1413393219855760384,-0.420481,-0.2146,0.818694,0.584696,-0.0107938,-0.811178,0.0021181,-0.0637123,-0.0707724,0.316438,-0.0012155,0.011694,0.0397694,-0.0653697,0.122215,0.023936
1413393219905760512,-0.423542,-0.218212,0.835053,0.586074,-0.00985077,-0.810198,0.000830289,-0.0650354,-0.071577,0.337366,-0.0011678,0.0117929,0.0398647,-0.0677081,0.124672,0.0218045
1413393219955760384,-0.426701,-0.221632,0.853102,0.587421,-0.00849593,-0.809237,-0.000852196,-0.0705001,-0.0645457,0.337204,-0.00119314,0.0118587,0.039985,-0.0680733,0.12595,0.0199063
1413393220005760512,-0.43017,-0.222468,0.866237,0.588473,-0.00742345,-0.808483,-0.000952128,-0.0620521,-0.0663157,0.296534,-0.00124045,0.0119611,0.0402014,-0.0701703,0.126038,0.0226246
1413393220055760384,-0.432546,-0.225927,0.877358,0.589751,-0.00708983,-0.807553,-0.00166801,-0.0423339,-0.071082,0.241357,-0.00118104,0.0119698,0.0402774,-0.0695723,0.128548,0.0229534
1413393220105760512,-0.434288,-0.229559,0.884877,0.590388,-0.00720353,-0.807085,-0.00197686,-0.0375399,-0.0670575,0.216662,-0.00121515,0.0119991,0.0403914,-0.0687541,0.130462,0.0235919
1413393220155760384,-0.435866,-0.234908,0.902097,0.59099,-0.00714334,-0.806641,-0.00318081,-0.0286355,-0.076013,0.196821,-0.00116302,0.0120255,0.0404831,-0.0688478,0.131876,0.0204992
1413393220205760512,-0.437328,-0.238041,0.911789,0.591624,-0.00649056,-0.80618,-0.00372093,-0.0252737,-0.0794763,0.219086,-0.00115469,0.0120925,0.0406032,-0.0691185,0.132963,0.0207326
1413393220255760384,-0.438652,-0.241109,0.925059,0.592217,-0.00725945,-0.805738,-0.00362233,-0.0194973,-0.073018,0.218346,-0.00117713,0.0121118,0.0406771,-0.068499,0.133735,0.0224343
1413393220305760512,-0.439179,-0.245137,0.931954,0.592693,-0.0061806,-0.805392,-0.0046838,-0.00763617,-0.0914283,0.223773,-0.00118825,0.0121321,0.040787,-0.0682634,0.13489,0.0241658
1413393220355760384,-0.439449,-0.249221,0.944672,0.593219,-0.00625441,-0.805005,-0.00432234,-0.00181337,-0.0934721,0.227697,-0.0011725,0.012159,0.0409294,-0.0690776,0.135574,0.0267214
1413393220405760512,-0.439173,-0.253821,0.955384,0.593306,-0.0067867,-0.804937,-0.00425768,0.00697941,-0.089782,0.242233,-0.00119288,0.0122024,0.040996,-0.0692619,0.136464,0.0268833
1413393220455760384,-0.43858,-0.258654,0.967583,0.592631,-0.00702697,-0.805432,-0.00435199,0.0222352,-0.109767,0.237258,-0.00118918,0.0122041,0.0411231,-0.0700935,0.137625,0.0275718
1413393220505760512,-0.437408,-0.263987,0.978906,0.590799,-0.00765576,-0.806774,-0.00372623,0.0289896,-0.112901,0.224128,-0.00118267,0.0122765,0.0412431,-0.0720223,0.138031,0.0284703
1413393220555760384,-0.435621,-0.269422,0.988502,0.589163,-0.00801983,-0.807967,-0.00357948,0.0436275,-0.108894,0.185139,-0.00121921,0.0122954,0.0413446,-0.0730971,0.137648,0.0305873
1413393220605760512,-0.433428,-0.27513,0.995969,0.588362,-0.00860682,-0.808544,-0.00356184,0.0398446,-0.123492,0.128119,-0.00121531,0.0123315,0.0414266,-0.0739055,0.13911,0.0298858
1413393220655760384,-0.431442,-0.281039,1.00119,0.589016,-0.00846589,-0.80807,-0.00328808,0.0421065,-0.128404,0.0739634,-0.00116485,0.0123626,0.0415078,-0.0741579,0.143721,0.0274831
1413393220705760512,-0.428991,-0.287166,1.00329,0.589513,-0.00944142,-0.807699,-0.00287442,0.0566891,-0.113163,0.0242632,-0.00116584,0.0123575,0.0416009,-0.0732764,0.144738,0.0284788
1413393220755760384,-0.426371,-0.293425,1.00306,0.589176,-0.0111764,-0.807927,-0.000298317,0.0499751,-0.137117,-0.02347,-0.00115801,0.0123917,0.0416729,-0.0732846,0.145828,0.0273557
1413393220805760512,-0.423431,-0.299683,1.00144,0.587011,-0.0137904,-0.809454,0.00359188,0.0592268,-0.126061,-0.0144719,-0.00116105,0.0124229,0.0417891,-0.0731091,0.146439,0.0280774
1413393220855760384,-0.420484,-0.305344,1.00191,0.585387,-0.0169962,-0.810544,0.00721465,0.0630848,-0.0937988,0.0379584,-0.0011501,0.012447,0.0419149,-0.0727709,0.147874,0.0281185
1413393220905760512,-0.417381,-0.310342,1.00526,0.58431,-0.0184012,-0.811265,0.00963482,0.0683594,-0.112776,0.0921863,-0.0011021,0.012464,0.0419365,-0.0700828,0.152597,0.0255756
1413393220955760384,-0.414713,-0.31481,1.0119,0.583083,-0.019332,-0.81211,0.010877,0.057146,-0.081505,0.198596,-0.00110695,0.0124541,0.0420522,-0.0696896,0.152352,0.0264186
1413393221005760512,-0.411986,-0.318046,1.02166,0.583546,-0.0201131,-0.811775,0.0095219,0.0469972,-0.0414758,0.224209,-0.00113669,0.0125586,0.0422155,-0.0728789,0.149624,0.0279859
1413393221055760384,-0.41,-0.319866,1.03295,0.582949,-0.0202781,-0.812207,0.0089224,0.0391425,-0.0500531,0.25403,-0.00120084,0.0124725,0.0420946,-0.0671676,0.146948,0.0300773
1413393221105760512,-0.40854,-0.321666,1.04576,0.581861,-0.0204573,-0.812984,0.00873531,0.0267419,-0.0246813,0.266108,-0.00121343,0.0125947,0.0423239,-0.0694858,0.148298,0.029913
1413393221155760384,-0.407261,-0.322169,1.06071,0.581291,-0.0208495,-0.813394,0.00750265,0.0269554,0.00105614,0.281949,-0.00124087,0.0126356,0.0424644,-0.070744,0.148767,0.0314149
1413393221205760512,-0.406682,-0.321184,1.0777,0.579991,-0.0207435,-0.814335,0.00615074,0.0127364,-0.0083249,0.28805,-0.00117101,0.0127066,0.0424941,-0.0707556,0.153729,0.0287957
1413393221255760384,-0.405844,-0.320091,1.0899,0.578459,-0.0197089,-0.815453,0.00581578,0.0124361,0.010676,0.28384,-0.00121162,0.0127186,0.0426001,-0.0708433,0.156839,0.03119
1413393221305760512,-0.405195,-0.301575,1.1024,0.576273,-0.0164011,-0.817063,0.0070107,0.0100155,0.0302584,0.269655,-0.00123276,0.0128031,0.0426918,-0.0669726,0.184749,0.0414234
1413393221355760384,-0.404807,-0.300216,1.09719,0.57453,-0.0159161,-0.818301,0.00675367,-0.00645017,0.0188661,0.305588,-0.00125671,0.0128643,0.0428018,-0.0668806,0.186766,0.039289
1413393221405760512,-0.405821,-0.29307,1.11695,0.572764,-0.0141493,-0.819571,0.00674576,-0.0228919,0.0318543,0.308528,-0.00121942,0.012883,0.0429023,-0.0617067,0.197742,0.0424122
1413393221455760384,-0.407376,-0.289144,1.11771,0.572169,-0.0125259,-0.820025,0.00491364,-0.0406051,0.0482837,0.288153,-0.00121957,0.0129061,0.0430001,-0.0595057,0.202765,0.0442886
1413393221505760512,-0.409831,-0.28671,1.11388,0.57134,-0.0116543,-0.820622,0.00390262,-0.057554,0.0381347,0.22491,-0.00118688,0.0128987,0.0430906,-0.057222,0.205697,0.0448349
1413393221555760384,-0.413495,-0.283398,1.13407,0.570639,-0.00929092,-0.821148,0.00102593,-0.0707942,0.0407582,0.175192,-0.00117521,0.0129223,0.0431572,-0.0547031,0.206906,0.0426214
1413393221605760512,-0.417831,-0.280952,1.14646,0.570654,-0.00799643,-0.821152,-0.000692186,-0.0995291,0.0352225,0.156635,-0.00113189,0.0129109,0.0432361,-0.0524394,0.209408,0.0420659
1413393221655760384,-0.422402,-0.281522,1.15263,0.571374,-0.00728857,-0.820656,-0.001865,-0.118882,0.0116862,0.160692,-0.00112116,0.0129023,0.0433142,-0.0516384,0.209173,0.0382785
1413393221705760512,-0.428707,-0.280232,1.15781,0.574391,-0.00650333,-0.818552,-0.00240621,-0.128548,0.0133339,0.172075,-0.00112177,0.0129146,0.0433932,-0.0528281,0.210015,0.04058
1413393221755760384,-0.435219,-0.279704,1.16511,0.577904,-0.00650423,-0.816077,-0.00168072,-0.137066,0.00186857,0.165034,-0.00115336,0.0129417,0.0434868,-0.0536239,0.209056,0.0407659
1413393221805760512,-0.442158,-0.279804,1.17237,0.581104,-0.00544354,-0.81381,-0.00120314,-0.138032,-0.0190669,0.169486,-0.00120623,0.0129598,0.0435692,-0.0544383,0.208299,0.0414691
1413393221855760384,-0.449051,-0.280296,1.17948,0.583046,-0.00480404,-0.812424,-0.00129533,-0.134819,-0.004713,0.160259,-0.0012163,0.0129698,0.0436212,-0.0539903,0.208816,0.040155
1413393221905760512,-0.455852,-0.281177,1.18755,0.584156,-0.00482501,-0.811627,-0.000522166,-0.134031,-0.0274141,0.14825,-0.00120785,0.0130442,0.0437536,-0.0546387,0.209093,0.0416053
1413393221955760384,-0.462455,-0.282291,1.19383,0.585706,-0.00427823,-0.810512,0.00112989,-0.128863,-0.03077,0.125085,-0.00123599,0.0130252,0.0438048,-0.054417,0.209715,0.0421126
1413393222005760512,-0.468562,-0.283765,1.19869,0.585744,-0.0043631,-0.810483,0.00146513,-0.122098,-0.0166975,0.0728895,-0.00122792,0.0130947,0.0438761,-0.0574225,0.209935,0.0424789
1413393222055760384,-0.474476,-0.285095,1.19943,0.58644,-0.00432578,-0.809978,0.00235379,-0.115487,-0.0344212,0.0135575,-0.00120911,0.0131402,0.0439505,-0.0581388,0.211024,0.0411877
1413393222105760512,-0.480226,-0.28687,1.19814,0.587114,-0.00409518,-0.809485,0.00382865,-0.118906,-0.0443841,-0.0481473,-0.00118597,0.0131207,0.0440234,-0.0575998,0.210873,0.0404899
1413393222155760384,-0.486032,-0.2888,1.19384,0.587135,-0.00332122,-0.809473,0.00394819,-0.114273,-0.0304021,-0.103952,-0.00118924,0.0130898,0.0440283,-0.0559903,0.211533,0.0389995
1413393222205760512,-0.491403,-0.290758,1.18727,0.587038,-0.00294509,-0.809544,0.00418382,-0.104992,-0.0383783,-0.163961,-0.00121158,0.0131299,0.0441416,-0.0579955,0.211076,0.0360927
1413393222255760384,-0.496247,-0.292886,1.17787,0.585859,-0.00255337,-0.810393,0.0051398,-0.0959986,-0.0471469,-0.215808,-0.00116491,0.0133428,0.0445385,-0.0665309,0.218729,0.0292981
1413393222305760512,-0.500832,-0.2949,1.16623,0.583527,-0.00156669,-0.812079,0.0046682,-0.0929807,-0.0300379,-0.247027,-0.0010829,0.0131806,0.044412,-0.0595278,0.219872,0.0288951
1413393222355760384,-0.505443,-0.296905,1.15434,0.579278,-0.00171181,-0.815113,0.00498907,-0.0959202,-0.0407881,-0.24569,-0.00107126,0.0130259,0.0443321,-0.0526939,0.218556,0.0315259
1413393222405760512,-0.510269,-0.299026,1.14302,0.575261,-0.00131878,-0.817949,0.00571478,-0.102925,-0.0476498,-0.227482,-0.00104826,0.0130265,0.0444441,-0.0535537,0.220099,0.0293982
1413393222455760384,-0.515675,-0.30103,1.13352,0.571899,0.000191391,-0.820314,0.00421753,-0.111725,-0.0384854,-0.202729,-0.000902219,0.0132472,0.0448319,-0.063805,0.23122,0.0214744
1413393222505760512,-0.52163,-0.30357,1.12473,0.5691,-7.23473e-05,-0.822251,0.00528934,-0.13385,-0.0544787,-0.174552,-0.000810197,0.0133274,0.0449035,-0.0642648,0.235292,0.0198522
1413393222555760384,-0.528449,-0.306714,1.11867,0.567934,-0.000945591,-0.823034,0.00812062,-0.139046,-0.0635466,-0.11513,-0.000804086,0.0133697,0.0449553,-0.063659,0.232618,0.0227768
1413393222605760512,-0.535922,-0.309869,1.11425,0.566908,-0.000964801,-0.823735,0.00867973,-0.166701,-0.0561841,-0.0862072,-0.00082616,0.013393,0.0450136,-0.062109,0.229281,0.0242862
1413393222655760384,-0.544575,-0.312979,1.11122,0.565473,-0.000928185,-0.824713,0.00941171,-0.194176,-0.0626864,-0.027714,-0.000807687,0.0134808,0.0451023,-0.0636144,0.226766,0.0256751
1413393222705760512,-0.554674,-0.316143,1.1111,0.565781,7.50485e-05,-0.824509,0.00875698,-0.215165,-0.064581,0.0196694,-0.000823242,0.0135483,0.0452248,-0.0638117,0.223208,0.0265868
1413393222755760384,-0.565659,-0.319192,1.11242,0.564368,-0.000209755,-0.825463,0.0100212,-0.237806,-0.0570709,0.0523847,-0.000850264,0.0136361,0.0453266,-0.0665507,0.221318,0.0257602
1413393222805760512,-0.577719,-0.321999,1.11535,0.562717,-0.000150906,-0.826581,0.0106367,-0.26146,-0.0543782,0.102518,-0.000827784,0.0136888,0.0455288,-0.0679411,0.221417,0.0240823
1413393222855760384,-0.590771,-0.324442,1.12021,0.560715,-0.000275773,-0.827928,0.0115836,-0.276586,-0.047806,0.132452,-0.000833972,0.0136896,0.0455716,-0.0689327,0.220741,0.0204243
1413393222905760512,-0.605206,-0.326481,1.13001,0.559713,-0.000141515,-0.82858,0.0132851,-0.30084,-0.0403097,0.174112,-0.000878752,0.0137357,0.0456608,-0.0706248,0.222274,0.0167808
1413393222955760384,-0.621025,-0.328129,1.14259,0.558119,0.00073845,-0.829639,0.0142027,-0.332642,-0.0361399,0.221015,-0.000843174,0.0137622,0.0457517,-0.0692695,0.224931,0.0110178
1413393223005760512,-0.63811,-0.329802,1.15469,0.559312,0.00163751,-0.82883,0.0144209,-0.348723,-0.0341271,0.232643,-0.000848065,0.0137628,0.0458464,-0.0693849,0.227086,0.00875976
1413393223055760384,-0.656335,-0.331486,1.16748,0.561295,0.00334473,-0.827475,0.0149272,-0.375913,-0.038302,0.253015,-0.000832528,0.0138722,0.0459505,-0.0724251,0.230747,0.00589225
1413393223105760512,-0.675644,-0.333371,1.17958,0.563165,0.00430438,-0.826184,0.0157151,-0.399114,-0.0331954,0.252417,-0.000783747,0.0139479,0.0461098,-0.0704333,0.231877,0.00401778
1413393223155760384,-0.696112,-0.335386,1.19157,0.564701,0.00499444,-0.825149,0.014773,-0.424132,-0.0385016,0.252922,-0.000753419,0.0139343,0.046129,-0.0661517,0.230136,0.00158331
1413393223205760512,-0.717606,-0.337888,1.20355,0.566625,0.00783734,-0.82383,0.0133857,-0.442417,-0.0508834,0.254777,-0.000765369,0.013961,0.046199,-0.064469,0.2277,0.00321752
1413393223255760384,-0.740141,-0.340933,1.21395,0.56777,0.00890558,-0.823048,0.0123047,-0.462007,-0.0506258,0.210319,-0.000821347,0.0139362,0.0462531,-0.0637561,0.221396,0.00682554
1413393223305760512,-0.76372,-0.344503,1.22475,0.569488,0.00947868,-0.821855,0.0121971,-0.481427,-0.0717591,0.169596,-0.000852097,0.0139469,0.0463369,-0.0641457,0.217379,0.00972669
1413393223355760384,-0.788171,-0.34843,1.23157,0.570571,0.00987105,-0.821107,0.0116332,-0.499609,-0.0803351,0.0832108,-0.00088184,0.0139871,0.0464071,-0.0636674,0.215466,0.00895011
1413393223405760512,-0.813304,-0.352935,1.23402,0.572331,0.0102067,-0.81988,0.0114415,-0.507699,-0.0871148,-0.0183779,-0.000879564,0.0140153,0.0464833,-0.0631111,0.211105,0.0108966
1413393223455760384,-0.839049,-0.357242,1.23016,0.574507,0.0107903,-0.818364,0.0103465,-0.519297,-0.0923924,-0.133358,-0.000888207,0.0140277,0.0465733,-0.0626551,0.211299,0.00927859
1413393223505760512,-0.865218,-0.362413,1.22187,0.577235,0.0108524,-0.816449,0.00965184,-0.524622,-0.0965509,-0.229794,-0.000881655,0.0139853,0.0466244,-0.0588799,0.20957,0.0126223
1413393223555760384,-0.891431,-0.367595,1.20904,0.58005,0.0101972,-0.814461,0.00957129,-0.529946,-0.104234,-0.305267,-0.000866792,0.0140207,0.0467398,-0.0603718,0.208686,0.0142548
1413393223605760512,-0.917644,-0.373111,1.19162,0.582726,0.0100976,-0.812563,0.00835814,-0.515913,-0.102048,-0.373342,-0.000927647,0.0140199,0.0468647,-0.059255,0.204437,0.0170178
1413393223655760384,-0.943063,-0.377929,1.17343,0.585011,0.00897569,-0.810944,0.00727576,-0.511261,-0.10721,-0.403127,-0.000909329,0.0140152,0.0469689,-0.0594517,0.205755,0.0117209
1413393223705760512,-0.968004,-0.38382,1.15015,0.586106,0.0077836,-0.810174,0.00617211,-0.501992,-0.113428,-0.376671,-0.000944529,0.0139696,0.047132,-0.0560581,0.199349,0.00933219
1413393223755760384,-0.992808,-0.389645,1.13309,0.586991,0.00653632,-0.809552,0.0050081,-0.500274,-0.123167,-0.301955,-0.000987255,0.0139063,0.0470961,-0.0563355,0.200169,0.00717859
1413393223805760512,-1.01694,-0.396234,1.11945,0.588112,0.00446597,-0.808756,0.00441178,-0.489061,-0.141896,-0.243993,-0.00104157,0.0138726,0.0471783,-0.0554661,0.198612,0.00551893
1413393223855760384,-1.04095,-0.40346,1.11021,0.586943,0.00277713,-0.809616,0.00349766,-0.466778,-0.150705,-0.148519,-0.00108609,0.0138395,0.0473388,-0.0546212,0.197981,0.0042884
1413393223905760512,-1.06445,-0.41107,1.10369,0.587226,0.00212509,-0.80942,0.000635033,-0.487505,-0.154545,-0.0829191,-0.0010861,0.0138395,0.0473389,-0.0538255,0.1972,0.00368163
1413393223955760384,-1.0885,-0.419287,1.10163,0.586898,0.000472216,-0.809661,-0.000633222,-0.4877,-0.174421,-0.0250333,-0.00148223,0.0137729,0.0473226,-0.0529754,0.196796,0.00316413
1413393224005760512,-1.1128,-0.428208,1.10167,0.587785,-0.00114008,-0.809015,-0.00146098,-0.489842,-0.186911,0.0080232,-0.00148223,0.0137729,0.0473228,-0.0520188,0.195815,0.00293371
1413393224055760384,-1.13734,-0.437903,1.10174,0.587172,-0.00342307,-0.809454,-0.00153726,-0.494949,-0.20046,0.000667444,-0.00160725,0.0137042,0.0473366,-0.0510012,0.194777,0.00299671
1413393224105760512,-1.16209,-0.448412,1.10158,0.588251,-0.00587085,-0.808656,-0.00162946,-0.491675,-0.226841,-0.0430654,-0.00164789,0.0136861,0.0473457,-0.0499222,0.194036,0.00276025
1413393224155760384,-1.18639,-0.459599,1.09676,0.588843,-0.00722981,-0.808212,-0.00229899,-0.488854,-0.240257,-0.068965,-0.00166886,0.0138404,0.0474392,-0.0525948,0.196186,0.00271248
1413393224205760512,-1.21022,-0.471839,1.08012,0.588549,-0.00583849,-0.808429,-0.00425313,-0.477269,-0.25532,-0.133462,-0.00152366,0.0141978,0.0477834,-0.0584513,0.202625,0.00322406
1413393224255760384,-1.23416,-0.484456,1.07133,0.589666,-0.00696527,-0.807598,-0.00560828,-0.473059,-0.266263,-0.16265,-0.00148903,0.0143577,0.0478996,-0.0600079,0.203352,0.00386556
1413393224305760512,-1.25747,-0.497759,1.06345,0.591159,-0.00855378,-0.80649,-0.00578938,-0.460824,-0.278394,-0.223256,-0.00151588,0.0144991,0.047819,-0.0586659,0.202887,0.00245679
1413393224355760384,-1.28082,-0.511945,1.04987,0.591242,-0.00736908,-0.806427,-0.00742269,-0.461857,-0.282709,-0.270603,-0.00150164,0.0145086,0.0479277,-0.0562516,0.200997,0.00263966
1413393224405760512,-1.30372,-0.526278,1.03687,0.590841,-0.00872879,-0.806688,-0.0092481,-0.450023,-0.278988,-0.313203,-0.00157216,0.0144163,0.0478787,-0.0532909,0.197149,0.0031238
1413393224455760384,-1.32585,-0.540688,1.02106,0.591747,-0.0123782,-0.805966,-0.0100603,-0.429349,-0.285861,-0.361455,-0.00168652,0.0142263,0.0477348,-0.0500997,0.192889,0.00288361
1413393224505760512,-1.3466,-0.554855,1.00075,0.591978,-0.0173243,-0.80569,-0.0112525,-0.403219,-0.274275,-0.411423,-0.00176277,0.014094,0.0477856,-0.0478235,0.189249,0.00258462
1413393224555760384,-1.36626,-0.568506,0.977431,0.591746,-0.0247155,-0.805666,-0.0112965,-0.388601,-0.270551,-0.444399,-0.00177697,0.0140956,0.0480538,-0.0478001,0.186401,0.00350073
1413393224605760512,-1.38513,-0.581654,0.951846,0.592626,-0.0323718,-0.804728,-0.0126145,-0.375307,-0.261192,-0.461243,-0.00177627,0.0143496,0.0483142,-0.0453965,0.187453,0.00452955
1413393224655760384,-1.40376,-0.594873,0.9223,0.592484,-0.0407767,-0.80442,-0.0144296,-0.367879,-0.242229,-0.418614,-0.00174229,0.0142427,0.0485618,-0.045513,0.18251,0.00593022
1413393224705760512,-1.42149,-0.607195,0.901121,0.590566,-0.0490662,-0.805324,-0.0166905,-0.350096,-0.245583,-0.414198,-0.00173954,0.0142679,0.0487423,-0.0453437,0.180046,0.00751799
1413393224755760384,-1.43913,-0.618873,0.880696,0.588629,-0.0576083,-0.806129,-0.0188289,-0.354576,-0.226241,-0.399088,-0.00170891,0.0142268,0.0488628,-0.0451118,0.176782,0.00928237
1413393224805760512,-1.4562,-0.629772,0.860768,0.586748,-0.0656281,-0.806776,-0.0230998,-0.324082,-0.201135,-0.382321,-0.00172685,0.0143184,0.0488841,-0.0457013,0.176025,0.0113203
1413393224855760384,-1.47225,-0.639878,0.84223,0.584695,-0.0739259,-0.807447,-0.0264126,-0.318814,-0.20638,-0.333999,-0.00175117,0.0143834,0.0489217,-0.0447925,0.174985,0.0134465
1413393224905760512,-1.48849,-0.649515,0.82673,0.583669,-0.0796959,-0.807511,-0.0300968,-0.323007,-0.187903,-0.277081,-0.00177115,0.0144855,0.0490009,-0.0455627,0.173785,0.0162709
1413393224955760384,-1.50361,-0.658508,0.814236,0.5819,-0.0856389,-0.808063,-0.0330678,-0.292318,-0.160583,-0.215494,-0.00174952,0.014501,0.0490732,-0.043571,0.17158,0.0187196
1413393225005760512,-1.51821,-0.66675,0.805261,0.580268,-0.089005,-0.808699,-0.0370776,-0.291193,-0.167304,-0.143815,-0.00173679,0.0145386,0.0491534,-0.0423576,0.170195,0.0213325
1413393225055760384,-1.53276,-0.674333,0.798923,0.578609,-0.0905297,-0.809529,-0.0409724,-0.285881,-0.147292,-0.128468,-0.00170938,0.0146104,0.0492715,-0.0420333,0.169604,0.023891
1413393225105760512,-1.54733,-0.680962,0.79483,0.577598,-0.0927216,-0.809835,-0.044167,-0.272783,-0.116072,-0.0571888,-0.00169015,0.0146052,0.0492988,-0.0407811,0.168121,0.0247416
1413393225155760384,-1.56066,-0.687106,0.791806,0.577413,-0.0939468,-0.809682,-0.0467244,-0.261114,-0.127742,-0.0727947,-0.00166775,0.014614,0.0493497,-0.0393364,0.167034,0.0254028
1413393225205760512,-1.57322,-0.692988,0.78825,0.576832,-0.0956763,-0.809895,-0.0467062,-0.25082,-0.110254,-0.060973,-0.00165391,0.014627,0.0494622,-0.0384688,0.166115,0.0261523
1413393225255760384,-1.58514,-0.698225,0.784814,0.576071,-0.0963015,-0.810253,-0.0485691,-0.233065,-0.0970015,-0.0535128,-0.00163014,0.0146359,0.0495064,-0.0379686,0.165675,0.0258797
1413393225305760512,-1.59677,-0.702936,0.781632,0.575166,-0.0982091,-0.810612,-0.0494671,-0.231769,-0.101214,-0.0806339,-0.00158551,0.0146588,0.0496015,-0.0380661,0.165427,0.0257032
1413393225355760384,-1.60822,-0.707101,0.779055,0.575157,-0.100856,-0.81014,-0.051916,-0.217628,-0.0760189,-0.0603008,-0.00157244,0.0146603,0.0496214,-0.0372216,0.165108,0.0244827
1413393225405760512,-1.61937,-0.71075,0.775909,0.574428,-0.10693,-0.809816,-0.0528792,-0.22388,-0.0602308,-0.0400107,-0.00151182,0.0146411,0.049688,-0.0363974,0.164315,0.0239583
1413393225455760384,-1.63108,-0.713389,0.774277,0.573425,-0.113865,-0.809459,-0.0547271,-0.236284,-0.0470866,-0.027351,-0.00147097,0.0146242,0.049775,-0.0365312,0.164002,0.0226717
1413393225505760512,-1.64249,-0.714722,0.773929,0.573401,-0.122973,-0.807985,-0.0570102,-0.223645,-0.00691739,-0.0176848,-0.0014737,0.0146034,0.0497833,-0.0367739,0.164148,0.0210312
1413393225555760384,-1.65376,-0.714495,0.773109,0.571649,-0.132785,-0.807408,-0.0606456,-0.219181,0.019207,-0.0100882,-0.00143703,0.0145794,0.0498587,-0.0370393,0.16413,0.0200557
1413393225605760512,-1.66531,-0.71247,0.77286,0.570701,-0.143927,-0.8058,-0.0653624,-0.240614,0.0550124,0.0196577,-0.00143166,0.0145333,0.0498978,-0.0373677,0.164541,0.0188304
1413393225655760384,-1.6769,-0.708644,0.774232,0.570172,-0.154534,-0.803631,-0.0721262,-0.229619,0.0943462,0.0302545,-0.00139968,0.0145217,0.0499427,-0.037859,0.165053,0.0181738
1413393225705760512,-1.68804,-0.70345,0.776278,0.56976,-0.167175,-0.800716,-0.0792479,-0.224062,0.12186,0.0550188,-0.00137721,0.0144821,0.0499823,-0.0384495,0.165755,0.0174745
1413393225755760384,-1.69911,-0.696962,0.779344,0.568988,-0.177184,-0.798013,-0.0896335,-0.228148,0.133803,0.0616148,-0.00134537,0.0144828,0.050045,-0.0400239,0.166614,0.0172342
1413393225805760512,-1.70957,-0.68927,0.783086,0.568169,-0.186092,-0.79513,-0.101601,-0.20492,0.167465,0.0888053,-0.00133903,0.0144639,0.0500521,-0.037438,0.168745,0.0162411
1413393225855760384,-1.71923,-0.680899,0.786322,0.564178,-0.195508,-0.793636,-0.116719,-0.188883,0.172322,0.0308983,-0.00129648,0.0144809,0.0501336,-0.0396484,0.168931,0.0167492
1413393225905760512,-1.72867,-0.672377,0.785576,0.563274,-0.20093,-0.791314,-0.127171,-0.186683,0.171131,-0.0609668,-0.00125532,0.0143989,0.0502416,-0.0389543,0.16946,0.016222
1413393225955760384,-1.73815,-0.663657,0.779894,0.559255,-0.209199,-0.789375,-0.142679,-0.195997,0.176535,-0.165961,-0.00123123,0.0143352,0.0502632,-0.0377519,0.170077,0.0154795
1413393226005760512,-1.74807,-0.655227,0.769755,0.558077,-0.216112,-0.785831,-0.155933,-0.19714,0.168451,-0.238793,-0.00121116,0.0142694,0.0503388,-0.0385595,0.170983,0.0146923
1413393226055760384,-1.75833,-0.64737,0.756669,0.557252,-0.227221,-0.781199,-0.166043,-0.205717,0.157038,-0.254721,-0.00122143,0.0142221,0.0503713,-0.0380263,0.172422,0.0134198
1413393226105760512,-1.76875,-0.640477,0.743017,0.556381,-0.238465,-0.776947,-0.172998,-0.212681,0.131233,-0.248608,-0.00121743,0.0141206,0.0503588,-0.0363259,0.173471,0.0125557
1413393226155760384,-1.77958,-0.634121,0.728782,0.555955,-0.249477,-0.772463,-0.178819,-0.220018,0.129073,-0.211931,-0.00122266,0.0140478,0.0503796,-0.0358448,0.174873,0.0119725
1413393226205760512,-1.79064,-0.628055,0.719462,0.55495,-0.260077,-0.768496,-0.183864,-0.22084,0.107496,-0.148039,-0.0012455,0.0139661,0.0503646,-0.0355133,0.175505,0.0120862
1413393226255760384,-1.80231,-0.622244,0.713902,0.55362,-0.270038,-0.765473,-0.186108,-0.240586,0.111249,-0.0772137,-0.00128087,0.0138639,0.0504162,-0.0355473,0.176381,0.0119574
1413393226305760512,-1.81364,-0.616652,0.707507,0.552704,-0.276823,-0.763046,-0.188807,-0.225532,0.109302,-0.0600388,-0.00134934,0.013768,0.0504365,-0.0359005,0.176062,0.0116303
1413393226355760384,-1.82446,-0.611179,0.715569,0.551619,-0.281755,-0.762821,-0.185567,-0.239414,0.0994561,-0.0175366,-0.00172712,0.0137522,0.0505392,-0.0381435,0.183204,0.00751908
1413393226405760512,-1.83128,-0.606789,0.727305,0.552698,-0.272845,-0.767946,-0.174182,-0.238709,0.0902868,-0.0229181,-0.00320985,0.0137096,0.051058,-0.0429809,0.207889,-0.00822627
1413393226455760384,-1.83937,-0.610567,0.756411,0.551064,-0.276909,-0.76816,-0.17199,-0.25168,0.0907792,-0.0483132,-0.00347839,0.0135272,0.0510862,-0.0542484,0.22528,-0.0381461
1413393226505760512,-1.85229,-0.60395,0.745793,0.547466,-0.281019,-0.769374,-0.171387,-0.266217,0.0950981,-0.0964231,-0.00355491,0.0135007,0.0511291,-0.0543814,0.226129,-0.0399983
1413393226555760384,-1.86444,-0.59887,0.723308,0.544941,-0.285508,-0.769671,-0.170681,-0.268189,0.100972,-0.131865,-0.00348972,0.0135667,0.0512338,-0.0558153,0.228267,-0.0423892
1413393226605760512,-1.88076,-0.59479,0.760995,0.542885,-0.288763,-0.770127,-0.169697,-0.2673,0.11762,-0.1583,-0.00341953,0.0135886,0.0513072,-0.0581437,0.239022,-0.0524898
1413393226655760384,-1.89339,-0.588484,0.752621,0.54186,-0.290236,-0.770022,-0.170932,-0.27899,0.132658,-0.139545,-0.00350124,0.0135262,0.0513374,-0.0609264,0.23644,-0.0592823
1413393226705760512,-1.90721,-0.581934,0.74673,0.542038,-0.287668,-0.769704,-0.176062,-0.296399,0.149413,-0.132882,-0.00352521,0.0135961,0.0513297,-0.061752,0.238148,-0.0598801
1413393226755760384,-1.92431,-0.571752,0.720286,0.546095,-0.277718,-0.770371,-0.176585,-0.303463,0.167767,-0.109668,-0.00425986,0.0137517,0.0516821,-0.0718375,0.245799,-0.0776409
1413393226805760512,-1.94123,-0.563693,0.719144,0.546334,-0.274464,-0.770207,-0.18158,-0.330902,0.155043,-0.0928606,-0.00423211,0.0137318,0.0516992,-0.070255,0.247459,-0.0786954
1413393226855760384,-1.95282,-0.557027,0.724418,0.544487,-0.278667,-0.768016,-0.189816,-0.33671,0.160907,-0.114589,-0.0035883,0.0138066,0.0514978,-0.0674742,0.246549,-0.0737601
1413393226905760512,-1.97347,-0.54875,0.715046,0.545057,-0.273038,-0.769328,-0.191045,-0.349141,0.155395,-0.0977997,-0.00391506,0.013925,0.0516234,-0.0683489,0.256612,-0.0794713
1413393226955760384,-1.9925,-0.541149,0.702683,0.545637,-0.267744,-0.770981,-0.190217,-0.374232,0.13832,-0.0799059,-0.00411922,0.013915,0.0518723,-0.0669416,0.257783,-0.0806029
1413393227005760512,-2.01156,-0.5345,0.699159,0.545495,-0.2659,-0.771448,-0.191315,-0.385335,0.130829,-0.0785863,-0.00404421,0.0138732,0.0519533,-0.0652667,0.257634,-0.0803189
1413393227055760384,-2.029,-0.527878,0.702214,0.545307,-0.269418,-0.769686,-0.194003,-0.401924,0.12665,-0.0721025,-0.00371605,0.0138482,0.0519182,-0.0657462,0.253147,-0.0817396
1413393227105760512,-2.05003,-0.52151,0.701409,0.5469,-0.270076,-0.768303,-0.194088,-0.41282,0.112536,-0.0766959,-0.00363477,0.0138083,0.0518826,-0.0661253,0.251349,-0.0842535
1413393227155760384,-2.07241,-0.514395,0.694291,0.548942,-0.270634,-0.767315,-0.191437,-0.422376,0.104609,-0.0650893,-0.00361055,0.0142259,0.0521294,-0.0733796,0.257217,-0.085742
1413393227205760512,-2.09762,-0.513281,0.658081,0.553355,-0.259268,-0.770912,-0.179647,-0.430471,0.0880984,-0.0474763,-0.00462521,0.0147441,0.0527789,-0.0743242,0.265595,-0.0765274
1413393227255760384,-2.12331,-0.508333,0.653733,0.555718,-0.259987,-0.770138,-0.174563,-0.43117,0.0861896,-0.0257112,-0.00489882,0.014826,0.052855,-0.0714497,0.264229,-0.0669537
1413393227305760512,-2.1442,-0.501786,0.666218,0.555917,-0.262039,-0.769563,-0.173397,-0.42862,0.0832989,-0.0375971,-0.00487959,0.0148579,0.0528695,-0.0726355,0.263164,-0.0698993
1413393227355760384,-2.16828,-0.49818,0.656884,0.557539,-0.261741,-0.769049,-0.170898,-0.426104,0.0788585,-0.0287751,-0.00499343,0.0148904,0.0529725,-0.0736887,0.266417,-0.0715253
1413393227405760512,-2.18963,-0.494262,0.652454,0.557001,-0.262261,-0.769608,-0.169331,-0.421012,0.0868864,-0.0246084,-0.00472976,0.0148666,0.0532877,-0.0713748,0.265301,-0.0676169
1413393227455760384,-2.21063,-0.4904,0.651011,0.557301,-0.263681,-0.769209,-0.167947,-0.420275,0.0929884,-0.0262132,-0.00488778,0.0148327,0.0532214,-0.0730355,0.262529,-0.0696647
1413393227505760512,-2.23203,-0.485372,0.651286,0.55765,-0.26438,-0.768807,-0.16753,-0.418485,0.0980539,-0.0309996,-0.0049088,0.0148621,0.0532636,-0.0750466,0.261505,-0.0725146
1413393227555760384,-2.25272,-0.480051,0.651405,0.558814,-0.266253,-0.767269,-0.167733,-0.412578,0.115415,-0.0273466,-0.00492798,0.0149559,0.0533519,-0.0781435,0.25977,-0.073011
1413393227605760512,-2.27388,-0.474184,0.643939,0.559478,-0.268925,-0.765914,-0.167449,-0.405893,0.125086,-0.0247116,-0.00459915,0.0150928,0.0536555,-0.0768456,0.266817,-0.0674904
1413393227655760384,-2.29359,-0.467697,0.640463,0.559248,-0.272868,-0.764099,-0.17011,-0.395977,0.143587,-0.0179751,-0.00473105,0.0150819,0.0536168,-0.0811243,0.261275,-0.0712619
1413393227705760512,-2.31297,-0.459967,0.639336,0.558182,-0.277988,-0.762363,-0.173087,-0.382092,0.161668,-0.022203,-0.00475371,0.0151437,0.0536152,-0.0842864,0.25983,-0.0733899
1413393227755760384,-2.33173,-0.451586,0.636971,0.557399,-0.284273,-0.759888,-0.176256,-0.367945,0.173713,-0.0340646,-0.00479431,0.0152174,0.0536374,-0.0878372,0.25708,-0.074182
1413393227805760512,-2.35171,-0.444514,0.627032,0.556222,-0.288554,-0.758311,-0.179774,-0.354206,0.180141,-0.0500334,-0.00503096,0.0152351,0.0536935,-0.0890489,0.265409,-0.0734175
1413393227855760384,-2.36923,-0.434901,0.624131,0.555421,-0.296653,-0.754899,-0.183392,-0.338907,0.202134,-0.0486765,-0.00477348,0.0154232,0.053958,-0.0905505,0.267978,-0.0716544
1413393227905760512,-2.38596,-0.424868,0.622202,0.554064,-0.304868,-0.751407,-0.188299,-0.333639,0.210468,-0.0351401,-0.00495967,0.0154587,0.0538654,-0.0946949,0.266386,-0.074537
1413393227955760384,-2.40198,-0.41419,0.619028,0.553392,-0.313222,-0.746995,-0.194032,-0.311639,0.222436,-0.0362488,-0.00499648,0.015472,0.0538542,-0.0966073,0.26583,-0.0751708
1413393228005760512,-2.41695,-0.402687,0.615988,0.551578,-0.322961,-0.742609,-0.199978,-0.286397,0.243173,-0.0502641,-0.00499936,0.0155206,0.0538997,-0.0979515,0.265674,-0.0757784
1413393228055760384,-2.4311,-0.390628,0.6128,0.549257,-0.3324,-0.737987,-0.207854,-0.283228,0.246222,-0.0551474,-0.00505,0.0153478,0.0539011,-0.0946411,0.264366,-0.07823
1413393228105760512,-2.44473,-0.378062,0.610298,0.54676,-0.342087,-0.733443,-0.21469,-0.267959,0.258241,-0.028121,-0.00505814,0.0153429,0.0539402,-0.0941693,0.264431,-0.0794273
1413393228155760384,-2.45761,-0.364921,0.607965,0.542843,-0.351519,-0.72949,-0.222712,-0.247993,0.266708,-0.0483215,-0.00505805,0.0154075,0.0539724,-0.0954369,0.264647,-0.0798472
1413393228205760512,-2.47008,-0.351514,0.605916,0.538882,-0.361008,-0.72575,-0.229274,-0.24736,0.270512,-0.0349766,-0.00507601,0.0153946,0.0539983,-0.0951199,0.264497,-0.0807541
1413393228255760384,-2.48217,-0.337727,0.604617,0.534913,-0.368254,-0.722639,-0.23675,-0.237519,0.278022,-0.0254963,-0.00510542,0.0153582,0.0540766,-0.092839,0.263861,-0.0820995
1413393228305760512,-2.49397,-0.323513,0.603428,0.531372,-0.374945,-0.719553,-0.243524,-0.233727,0.284056,-0.0178473,-0.00510426,0.0154355,0.0540636,-0.0944001,0.264335,-0.0827215
1413393228355760384,-2.50562,-0.309038,0.602437,0.528188,-0.380561,-0.716679,-0.250123,-0.235173,0.291819,-0.00532215,-0.00509276,0.0153404,0.0541451,-0.0915783,0.264263,-0.0833503
1413393228405760512,-2.51706,-0.29408,0.602306,0.52486,-0.386586,-0.713481,-0.256941,-0.221227,0.301949,0.00261708,-0.00508356,0.0153807,0.0541692,-0.0912153,0.264423,-0.0840537
1413393228455760384,-2.52819,-0.278865,0.602289,0.522251,-0.393706,-0.709428,-0.262606,-0.219104,0.307651,0.0123092,-0.00507567,0.0154726,0.0542061,-0.0925607,0.264778,-0.0841517
1413393228505760512,-2.53936,-0.263617,0.602541,0.521095,-0.399522,-0.704555,-0.269157,-0.228891,0.302245,0.0134009,-0.00508368,0.0154845,0.0542293,-0.0930252,0.264912,-0.0844548
1413393228555760384,-2.55034,-0.248368,0.602897,0.519426,-0.406222,-0.699854,-0.274563,-0.209823,0.308118,0.0082678,-0.00509204,0.0155423,0.0542374,-0.09472,0.265206,-0.0842635
1413393228605760512,-2.561,-0.233077,0.60285,0.51618,-0.413114,-0.69631,-0.279371,-0.212865,0.30602,0.0127564,-0.00506907,0.015597,0.0542543,-0.0953458,0.265509,-0.0843346
1413393228655760384,-2.57178,-0.217841,0.602865,0.513986,-0.419272,-0.693037,-0.282364,-0.221192,0.301823,0.0196962,-0.00502449,0.015668,0.0543315,-0.0940633,0.265691,-0.0851131
1413393228705760512,-2.58243,-0.202225,0.602156,0.51078,-0.423267,-0.691519,-0.285922,-0.211324,0.309844,0.0152748,-0.0047814,0.0157489,0.0543051,-0.0917662,0.267582,-0.0855184
1413393228755760384,-2.59344,-0.186672,0.603627,0.508313,-0.427861,-0.689739,-0.287773,-0.223809,0.308953,0.022122,-0.00464315,0.015859,0.0544056,-0.0926734,0.268843,-0.0846261
1413393228805760512,-2.60483,-0.170854,0.604136,0.505594,-0.432388,-0.689161,-0.287181,-0.234896,0.32376,0.00599297,-0.00458883,0.0158909,0.054448,-0.0920089,0.268967,-0.0840225
1413393228855760384,-2.61648,-0.154331,0.604239,0.503001,-0.437049,-0.688733,-0.285703,-0.226927,0.335606,-0.00642936,-0.00454125,0.0158615,0.054501,-0.0904667,0.267984,-0.0833325
1413393228905760512,-2.62795,-0.137225,0.603748,-0.499328,0.440487,0.690118,0.283513,-0.227695,0.350838,-0.00403295,-0.00440947,0.0159205,0.0545683,-0.0898565,0.268755,-0.0825419
1413393228955760384,-2.63942,-0.119152,0.603104,-0.497803,0.442327,0.690326,0.282824,-0.233892,0.36632,-0.0159868,-0.00431216,0.0159442,0.0546063,-0.0883961,0.269081,-0.0818076
1413393229005760512,-2.65104,-0.0999233,0.602524,-0.495779,0.44164,0.691222,0.285253,-0.226677,0.398581,-0.0089379,-0.00421047,0.0159972,0.0546511,-0.0873636,0.269781,-0.0809674
1413393229055760384,-2.66274,-0.0792806,0.60167,-0.493334,0.438394,0.692995,0.290156,-0.244932,0.422321,-0.0307424,-0.00413448,0.0160188,0.0546501,-0.0853074,0.271799,-0.0815654
1413393229105760512,-2.675,-0.0579569,0.598461,-0.49279,0.435437,0.693247,0.29489,-0.250783,0.431985,-0.0536336,-0.00408566,0.0160527,0.0546963,-0.0840775,0.272637,-0.0813233
1413393229155760384,-2.68756,-0.0364484,0.594132,-0.491782,0.432511,0.69389,0.299336,-0.253698,0.432562,-0.0435052,-0.00406901,0.0161547,0.0546848,-0.084546,0.274354,-0.0812173
1413393229205760512,-2.70098,-0.0148932,0.591954,-0.490924,0.429116,0.694979,0.303079,-0.279258,0.430225,-0.0708471,-0.00402453,0.0160824,0.0547439,-0.0796299,0.272469,-0.0811498
1413393229255760384,-2.71537,0.00651295,0.588032,-0.490595,0.426278,0.695714,0.305919,-0.294619,0.42564,-0.0849072,-0.00402556,0.0160271,0.0548145,-0.0762773,0.270266,-0.0817741
1413393229305760512,-2.73065,0.0275406,0.582781,-0.491077,0.423931,0.695685,0.308461,-0.302305,0.421011,-0.0960504,-0.00409044,0.0159267,0.0548903,-0.0725972,0.263856,-0.0814689
1413393229355760384,-2.74641,0.0487742,0.570745,-0.491876,0.422201,0.695743,0.30943,-0.337576,0.416254,-0.107079,-0.00370678,0.0160964,0.0548662,-0.0692377,0.27094,-0.073256
1413393229405760512,-2.76361,0.0693705,0.561083,-0.49391,0.421421,0.694931,0.309075,-0.354576,0.409657,-0.12134,-0.00365537,0.0161094,0.0549359,-0.0673547,0.266781,-0.0704782
1413393229455760384,-2.782,0.0888097,0.548424,-0.498066,0.42248,0.692298,0.306862,-0.360833,0.400179,-0.118088,-0.00380433,0.0160585,0.0549821,-0.0687287,0.259705,-0.0757526
1413393229505760512,-2.80084,0.108264,0.538192,0.502047,-0.423846,-0.690277,-0.303021,-0.378634,0.388161,-0.11903,-0.00383776,0.0160552,0.0550578,-0.0695583,0.253774,-0.076461
1413393229555760384,-2.83135,0.125044,0.551271,0.503015,-0.430138,-0.686195,-0.301817,-0.376078,0.390276,-0.104051,-0.00359171,0.0159637,0.0550131,-0.0717396,0.247404,-0.0848643
1413393229605760512,-2.83191,0.140163,0.54116,0.505805,-0.430627,-0.686829,-0.294937,-0.358323,0.392625,-0.0916563,-0.00381095,0.0160205,0.0551008,-0.0705083,0.247154,-0.0854719
1413393229655760384,-2.85004,0.15944,0.536068,0.50565,-0.433301,-0.687378,-0.289966,-0.362343,0.386204,-0.0869459,-0.00376831,0.0160343,0.055153,-0.0689784,0.245439,-0.0849424
1413393229705760512,-2.8677,0.178871,0.532328,0.504412,-0.435136,-0.688496,-0.286703,-0.344967,0.398401,-0.0725487,-0.00381425,0.0160311,0.0552297,-0.0679155,0.244432,-0.0876435
1413393229755760384,-2.88496,0.198878,0.529512,0.502687,-0.436524,-0.690064,-0.28384,-0.342103,0.40275,-0.0523822,-0.00379447,0.0160215,0.0552792,-0.0656276,0.244131,-0.0877874
1413393229805760512,-2.9019,0.219455,0.526901,-0.499675,0.438359,0.692314,0.280835,-0.33565,0.419505,-0.0352553,-0.00376991,0.0160601,0.0553131,-0.0641726,0.245056,-0.0866718
1413393229855760384,-2.91919,0.240712,0.522922,-0.49605,0.439523,0.695101,0.278547,-0.325473,0.436399,-0.0139989,-0.00377592,0.0160551,0.0553718,-0.0629197,0.242973,-0.0867284
1413393229905760512,-2.9359,0.2627,0.522389,-0.493195,0.440533,0.697225,0.276707,-0.322511,0.448336,0.00290419,-0.00376224,0.0159707,0.055443,-0.0594674,0.239497,-0.087553
1413393229955760384,-2.95234,0.285873,0.524585,-0.491378,0.440129,0.698813,0.276576,-0.327206,0.478186,0.0151557,-0.00374269,0.015958,0.0554822,-0.0587087,0.238688,-0.0883952
1413393230005760512,-2.96864,0.310396,0.526543,-0.489536,0.438151,0.700405,0.278946,-0.322404,0.505355,0.062386,-0.00370768,0.0159761,0.0555135,-0.0576377,0.239331,-0.0883711
1413393230055760384,-2.98534,0.336191,0.529417,-0.489251,0.433544,0.701263,0.284436,-0.343524,0.524843,0.062923,-0.00367245,0.0159763,0.0555595,-0.0574166,0.239517,-0.0891073
1413393230105760512,-3.00277,0.362803,0.532315,-0.489014,0.42915,0.702036,0.289554,-0.349171,0.539156,0.0508019,-0.00364638,0.0159747,0.055611,-0.0564136,0.238749,-0.0893497
1413393230155760384,-3.02095,0.390078,0.535384,-0.489384,0.425879,0.702197,0.293343,-0.366788,0.546967,0.0459513,-0.00361129,0.0159829,0.0556438,-0.0542628,0.238213,-0.0880095
1413393230205760512,-3.04023,0.417483,0.538467,-0.489116,0.422676,0.703036,0.296398,-0.391009,0.542599,0.0254965,-0.0036003,0.0159528,0.0557073,-0.0506233,0.234623,-0.0866222
1413393230255760384,-3.06041,0.444761,0.540095,-0.490588,0.420414,0.702528,0.29838,-0.408126,0.545346,0.00528021,-0.00360311,0.0158804,0.0557588,-0.0463701,0.231204,-0.0855407
1413393230305760512,-3.08131,0.471817,0.540242,-0.492863,0.418771,0.70162,0.299077,-0.426431,0.541321,-0.00179716,-0.00361081,0.0158476,0.0558006,-0.043361,0.229807,-0.0854837
1413393230355760384,-3.10244,0.498598,0.53854,-0.494627,0.41973,0.700875,0.296555,-0.437359,0.531145,-0.0382229,-0.00361489,0.0158571,0.0558374,-0.042312,0.231398,-0.0867564
1413393230405760512,-3.12362,0.525396,0.53491,-0.49716,0.420271,0.699806,0.294069,-0.450699,0.533006,-0.0441474,-0.00365344,0.0158591,0.0558825,-0.0400343,0.231738,-0.083699
1413393230455760384,-3.12284,0.553123,0.523631,0.502032,-0.413211,-0.704911,-0.28341,-0.461969,0.535774,-0.0422135,-0.00461215,0.0159942,0.0561389,-0.0294274,0.254357,-0.0598715
1413393230505760512,-3.14342,0.579196,0.513766,0.503837,-0.416041,-0.703381,-0.279848,-0.466373,0.53476,-0.0227108,-0.00474935,0.0160112,0.0562146,-0.0278759,0.264638,-0.0571245
1413393230555760384,-3.16598,0.605908,0.495722,0.503428,-0.42098,-0.701677,-0.277464,-0.457341,0.537281,-0.0453354,-0.00486242,0.0160309,0.0562477,-0.017082,0.265823,-0.0346605
1413393230605760512,-3.2094,0.633502,0.52568,0.500933,-0.436093,-0.690081,-0.287538,-0.443681,0.56838,-0.0330476,-0.00389052,0.0157409,0.056125,-0.0430385,0.251062,-0.0989656
1413393230655760384,-3.24042,0.658938,0.464423,-0.49851,0.446757,0.683562,0.290927,-0.438881,0.578129,-0.010478,-0.00359831,0.0156794,0.0561229,-0.0460485,0.243517,-0.105904
1413393230705760512,-3.26672,0.686741,0.453927,-0.496567,0.454103,0.678689,0.294267,-0.42634,0.606275,0.0421506,-0.00359099,0.0156408,0.0561676,-0.0511523,0.244824,-0.11535
1413393230755760384,-3.28284,0.716733,0.460888,-0.494603,0.460958,0.674697,0.296091,-0.403714,0.615127,0.0532872,-0.00380226,0.0156656,0.0562366,-0.0475487,0.243826,-0.105254
1413393230805760512,-3.30297,0.74727,0.466805,-0.491928,0.469441,0.668893,0.300358,-0.39409,0.629695,0.0683881,-0.00379335,0.015636,0.0562826,-0.0484247,0.242711,-0.107612
1413393230855760384,-3.32241,0.779053,0.470247,-0.487606,0.477857,0.663321,0.306429,-0.365713,0.657161,0.0792545,-0.00378436,0.0156495,0.056314,-0.0496501,0.241952,-0.107839
1413393230905760512,-3.34023,0.811999,0.474301,-0.482628,0.485745,0.657805,0.313713,-0.354067,0.673978,0.108579,-0.00380706,0.0156484,0.0563601,-0.0506235,0.242246,-0.107823
1413393230955760384,-3.35722,0.845887,0.479294,-0.476133,0.491976,0.653534,0.322725,-0.337634,0.687812,0.122268,-0.00380638,0.0156593,0.0564119,-0.0515189,0.242902,-0.106682
1413393231005760512,-3.37386,0.8808,0.486442,-0.468977,0.496828,0.650081,0.332592,-0.3239,0.70025,0.134577,-0.00381166,0.0156628,0.0564977,-0.0513046,0.242705,-0.104559
1413393231055760384,-3.3902,0.916472,0.495993,-0.461674,0.500264,0.647718,0.342133,-0.329296,0.716734,0.123386,-0.00381032,0.0156877,0.056543,-0.0505921,0.243273,-0.100198
1413393231105760512,-3.40692,0.952625,0.506854,-0.456009,0.502864,0.645229,0.350519,-0.350183,0.713731,0.121582,-0.0037857,0.0157399,0.0565599,-0.0507718,0.245391,-0.0960997
1413393231155760384,-3.42418,0.988752,0.514567,-0.451252,0.505228,0.642973,0.357355,-0.36189,0.715401,0.134888,-0.0037539,0.0157671,0.0565775,-0.0507661,0.248551,-0.0930377
1413393231205760512,-3.44303,1.02471,0.521917,-0.447627,0.508421,0.640687,0.361468,-0.380084,0.719631,0.134217,-0.00375476,0.0158065,0.0566515,-0.0509669,0.248272,-0.0895472
1413393231255760384,-3.46306,1.06054,0.529298,-0.444425,0.510486,0.638936,0.365583,-0.415758,0.712373,0.128409,-0.00375613,0.0157892,0.0567122,-0.051576,0.24752,-0.0878269
1413393231305760512,-3.48397,1.09575,0.534413,-0.443874,0.513258,0.636193,0.367153,-0.425884,0.703092,0.0825115,-0.00375343,0.0157952,0.0567276,-0.0521493,0.247811,-0.0877987
1413393231355760384,-3.5053,1.13067,0.537018,-0.444694,0.516297,0.63328,0.366936,-0.438638,0.701843,0.0328882,-0.00378639,0.0158096,0.0568223,-0.0523768,0.248642,-0.0870294
1413393231405760512,-3.52679,1.16561,0.537422,-0.447229,0.51927,0.629831,0.365593,-0.456242,0.705557,-0.00465379,-0.00381397,0.0157984,0.0568641,-0.0522781,0.250084,-0.0855555
1413393231455760384,-3.54914,1.20079,0.53564,-0.452011,0.521732,0.62492,0.364633,-0.449794,0.708624,-0.0373894,-0.00385395,0.0158134,0.0569005,-0.0524922,0.251027,-0.0843429
1413393231505760512,-3.57185,1.23591,0.533827,-0.45888,0.523056,0.618783,0.364622,-0.454313,0.698076,-0.0816906,-0.00387057,0.0158147,0.0568897,-0.053697,0.251517,-0.0851943
1413393231555760384,-3.59391,1.27144,0.533205,-0.46719,0.522464,0.612335,0.365802,-0.453263,0.689849,-0.130403,-0.00373003,0.015973,0.0569391,-0.0534143,0.256827,-0.078414
1413393231605760512,-3.616,1.30568,0.527079,-0.474912,0.52162,0.606061,0.367508,-0.421777,0.670956,-0.161939,-0.00374365,0.0159487,0.0569947,-0.0521197,0.255552,-0.0762333
1413393231655760384,-3.63684,1.33857,0.518743,-0.479945,0.521716,0.601079,0.369011,-0.410517,0.641811,-0.178356,-0.00375251,0.0159455,0.0569975,-0.0527282,0.256586,-0.0761454
1413393231705760512,-3.65665,1.3696,0.506485,-0.481441,0.522299,0.598238,0.370849,-0.377503,0.615425,-0.179364,-0.00388873,0.0159049,0.0570014,-0.0547057,0.254021,-0.0801438
1413393231755760384,-3.67499,1.39914,0.494619,-0.480023,0.525225,0.596129,0.371952,-0.339702,0.589159,-0.167681,-0.00406748,0.0158723,0.0570008,-0.0576693,0.250348,-0.0834733
1413393231805760512,-3.69242,1.42752,0.488123,-0.477419,0.529496,0.59458,0.371725,-0.328733,0.550206,-0.160871,-0.00420245,0.0159343,0.0570004,-0.0610391,0.246125,-0.0828166
1413393231855760384,-3.70777,1.45451,0.48064,-0.475158,0.535797,0.592146,0.369472,-0.289906,0.524361,-0.14976,-0.00424478,0.0159673,0.0569894,-0.0616344,0.246615,-0.0825092
1413393231905760512,-3.72142,1.48057,0.473613,-0.470669,0.54418,0.589763,0.366767,-0.249378,0.51028,-0.125323,-0.00424476,0.0159673,0.0569895,-0.0625822,0.246922,-0.0822361
1413393231955760384,-3.73317,1.50598,0.467704,-0.466945,0.552272,0.586361,0.364883,-0.223029,0.508064,-0.110507,-0.00429155,0.0159803,0.0569712,-0.0633324,0.247599,-0.0816556
1413393232005760512,-3.74286,1.53104,0.463375,-0.463061,0.560235,0.58214,0.36445,-0.17248,0.494216,-0.102856,-0.00431462,0.0159908,0.0569791,-0.0643968,0.248509,-0.0806806
1413393232055760384,-3.75021,1.55617,0.45994,-0.457185,0.566954,0.57882,0.366759,-0.129722,0.504023,-0.0656611,-0.00434525,0.0160374,0.0570591,-0.0647279,0.250108,-0.0785135
1413393232105760512,-3.75457,1.58194,0.454814,-0.451055,0.573509,0.574987,0.370171,-0.0941013,0.490614,-0.0427322,-0.00395374,0.0161275,0.0572229,-0.0619494,0.259031,-0.069129
1413393232155760384,-3.75745,1.60679,0.447786,-0.444863,0.57971,0.570622,0.374733,-0.0515993,0.486295,-0.0474573,-0.00380137,0.0162726,0.0573419,-0.0633657,0.26319,-0.0639749
1413393232205760512,-3.75865,1.63157,0.44396,-0.438546,0.584042,0.565903,0.382526,-0.0220871,0.493324,-0.0409981,-0.00369858,0.016479,0.0574728,-0.0657181,0.266795,-0.0598092
1413393232255760384,-3.75911,1.65639,0.441389,-0.432743,0.589105,0.560454,0.389332,0.000300831,0.493087,-0.0743618,-0.00368274,0.0164243,0.0575975,-0.0654122,0.266809,-0.0575237
1413393232305760512,-3.75868,1.68101,0.435834,-0.427251,0.594228,0.554515,0.39606,0.0314957,0.492974,-0.106232,-0.00366215,0.0164127,0.0575712,-0.0690251,0.26443,-0.056834
1413393232355760384,-3.75761,1.70573,0.431315,-0.422573,0.600762,0.54738,0.401115,0.047433,0.495964,-0.140748,-0.00364903,0.0164552,0.0575405,-0.0751188,0.260252,-0.0566401
1413393232405760512,-3.75496,1.72986,0.418978,-0.417097,0.607363,0.54129,0.405149,0.0733952,0.497918,-0.155808,-0.00353528,0.0166287,0.0572832,-0.0866452,0.260209,-0.0631063
1413393232455760384,-3.7504,1.75449,0.409059,-0.411719,0.613869,0.53487,0.409349,0.0963008,0.495561,-0.194795,-0.00351371,0.0168693,0.0572721,-0.0935881,0.26403,-0.0643815
1413393232505760512,-3.74616,1.77962,0.398966,-0.406618,0.620377,0.528656,0.412696,0.111989,0.504243,-0.22777,-0.00360369,0.0168941,0.0575382,-0.0961087,0.258361,-0.0618598
1413393232555760384,-3.74017,1.80548,0.38988,-0.40232,0.625787,0.523291,0.415567,0.129117,0.512773,-0.261822,-0.00368201,0.0170621,0.0578218,-0.0928375,0.255239,-0.0538709
1413393232605760512,-3.73397,1.83154,0.376412,-0.398422,0.629653,0.519475,0.418261,0.140796,0.510787,-0.29036,-0.00372706,0.0171292,0.0581287,-0.0874542,0.246691,-0.0441822
1413393232655760384,-3.72632,1.85711,0.362486,-0.396217,0.633378,0.514948,0.420325,0.171461,0.513927,-0.267395,-0.00373514,0.0172703,0.0581299,-0.0884519,0.246595,-0.0426651
1413393232705760512,-3.71761,1.88288,0.349586,-0.394573,0.635909,0.511231,0.422582,0.178378,0.519345,-0.256895,-0.00373495,0.0172704,0.0581299,-0.0898439,0.247072,-0.0418855
1413393232755760384,-3.70794,1.90869,0.337374,-0.391925,0.637252,0.509545,0.425052,0.202008,0.51663,-0.231535,-0.00373497,0.0172705,0.05813,-0.0911694,0.247528,-0.0411434
1413393232805760512,-3.69718,1.93465,0.325827,-0.389664,0.638775,0.508076,0.4266,0.231436,0.528839,-0.224915,-0.00373493,0.0172706,0.0581301,-0.0924381,0.247946,-0.04043
1413393232855760384,-3.68549,1.96144,0.315252,-0.38872,0.639537,0.506492,0.4282,0.237225,0.539489,-0.213486,-0.00373493,0.0172706,0.0581302,-0.0936683,0.248322,-0.0397558
1413393232905760512,-3.67301,1.98813,0.304896,-0.386407,0.640357,0.50681,0.428691,0.260567,0.53643,-0.200649,-0.00373492,0.0172707,0.0581303,-0.094873,0.248657,-0.039118
1413393232955760384,-3.66011,2.01521,0.297089,-0.382367,0.639279,0.508773,0.431588,0.281502,0.537798,-0.154109,-0.00375825,0.0172758,0.0583567,-0.093579,0.242153,-0.0354773
1413393233005760512,-3.64644,2.04275,0.290991,-0.378994,0.638601,0.510735,0.433246,0.287177,0.55267,-0.120561,-0.0037585,0.0172582,0.0585623,-0.0917417,0.23675,-0.0323798
1413393233055760384,-3.63268,2.07072,0.287668,-0.375752,0.637282,0.51312,0.435189,0.295189,0.563491,-0.0804101,-0.00381428,0.0171935,0.0584618,-0.0893926,0.230845,-0.0332549
1413393233105760512,-3.61805,2.09901,0.285346,-0.372829,0.636942,0.515171,0.435778,0.311592,0.560945,-0.0467663,-0.00384072,0.0171453,0.0584962,-0.0882419,0.227227,-0.0329235
1413393233155760384,-3.60321,2.12769,0.28492,-0.371403,0.635995,0.516541,0.436755,0.30894,0.576172,-0.00376772,-0.00391321,0.017086,0.0584448,-0.0869298,0.223507,-0.0335278
1413393233205760512,-3.58758,2.1571,0.286034,-0.370307,0.634585,0.517494,0.438606,0.312395,0.595616,0.0486809,-0.00388051,0.0171074,0.0586315,-0.0865541,0.222974,-0.0319372
1413393233255760384,-3.57135,2.18696,0.289889,-0.369986,0.633109,0.515813,0.442969,0.330253,0.592688,0.0893889,-0.00385481,0.0171831,0.0587322,-0.0871629,0.223444,-0.031079
1413393233305760512,-3.55502,2.21701,0.295703,-0.369412,0.631818,0.513723,0.447693,0.321951,0.606363,0.135059,-0.00385992,0.0172335,0.0587302,-0.0875869,0.223535,-0.0303247
1413393233355760384,-3.53873,2.24726,0.30364,-0.369587,0.630755,0.509713,0.453593,0.327103,0.607183,0.189977,-0.00386306,0.0172878,0.0587284,-0.0879577,0.223633,-0.0295474
1413393233405760512,-3.52243,2.27723,0.313345,-0.369877,0.63086,0.504042,0.459509,0.32541,0.592381,0.200718,-0.00388204,0.0173233,0.058712,-0.0882752,0.223257,-0.0286312
1413393233455760384,-3.50678,2.30689,0.325199,-0.371315,0.633377,0.49586,0.463769,0.315514,0.588411,0.250751,-0.00384767,0.0172411,0.0587685,-0.085828,0.220392,-0.0268444
1413393233505760512,-3.49165,2.33598,0.341533,-0.368042,0.635638,0.49054,0.468914,0.310737,0.558934,0.2956,-0.00379638,0.0170014,0.0588481,-0.0803321,0.214792,-0.0245212
1413393233555760384,-3.47652,2.36374,0.357245,-0.36505,0.640236,0.483988,0.471797,0.310928,0.538115,0.303059,-0.00375988,0.0166771,0.0588915,-0.0696827,0.210304,-0.0229711
1413393233605760512,-3.46133,2.39079,0.373976,-0.35819,0.645131,0.479192,0.475269,0.306716,0.540214,0.351461,-0.00382709,0.0164753,0.0587501,-0.0648228,0.207871,-0.0231046
1413393233655760384,-3.44585,2.41658,0.392409,-0.350785,0.651799,0.473923,0.476975,0.301674,0.528684,0.385495,-0.00387787,0.0165498,0.0587138,-0.0655246,0.211749,-0.024439
1413393233705760512,-3.43088,2.44214,0.412985,-0.342567,0.659458,0.468332,0.477942,0.290697,0.51751,0.419414,-0.00386423,0.0166872,0.0587801,-0.0680514,0.214887,-0.0235756
1413393233755760384,-3.41625,2.46797,0.437111,-0.334899,0.664,0.46206,0.483164,0.280072,0.518434,0.480705,-0.00386638,0.0167956,0.0588266,-0.0695603,0.218053,-0.0232207
1413393233805760512,-3.40272,2.49342,0.461273,-0.330424,0.668063,0.454754,0.487557,0.25997,0.499439,0.502225,-0.00383408,0.0168788,0.0589087,-0.0701734,0.219027,-0.0211533
1413393233855760384,-3.39058,2.51877,0.486485,-0.328136,0.667343,0.44628,0.497809,0.232153,0.503545,0.491108,-0.0038335,0.0168943,0.0589328,-0.0698467,0.216513,-0.0189625
1413393233905760512,-3.37998,2.54382,0.511622,-0.328223,0.670077,0.43782,0.501578,0.216003,0.490765,0.489759,-0.00380805,0.0169727,0.0590102,-0.0710341,0.211442,-0.0161151
1413393233955760384,-3.37013,2.56793,0.537225,-0.32615,0.672624,0.42974,0.506485,0.212817,0.464996,0.483956,-0.00377983,0.016949,0.0590289,-0.0695182,0.205296,-0.0150685
1413393234005760512,-3.36086,2.59092,0.562281,-0.324476,0.677821,0.421744,0.507352,0.186474,0.453413,0.491263,-0.00377999,0.0169288,0.0590055,-0.0680252,0.201617,-0.015398
1413393234055760384,-3.35189,2.61295,0.587285,-0.322516,0.683954,0.413533,0.50713,0.176462,0.4291,0.482203,-0.00376755,0.0169439,0.0590659,-0.0662625,0.200468,-0.0147485
1413393234105760512,-3.34362,2.63386,0.614199,-0.318413,0.690756,0.406199,0.506431,0.17662,0.400151,0.47021,-0.00375622,0.0169214,0.0590894,-0.0638775,0.198078,-0.0144088
1413393234155760384,-3.33564,2.65401,0.641065,-0.313853,0.697461,0.399601,0.505335,0.169054,0.38184,0.429139,-0.00373537,0.0169436,0.0591884,-0.0603336,0.195169,-0.0118918
1413393234205760512,-3.32496,2.6717,0.646806,-0.312292,0.702546,0.392345,0.504945,0.178743,0.358752,0.403959,-0.00374332,0.0169723,0.0591676,-0.0578987,0.201865,-0.0134903
1413393234255760384,-3.31548,2.68917,0.667603,-0.315189,0.705103,0.381749,0.507695,0.198902,0.33227,0.367825,-0.00375166,0.0169988,0.0592481,-0.055198,0.204215,-0.0113307
1413393234305760512,-3.30653,2.70406,0.701081,-0.322106,0.706388,0.369305,0.510761,0.211091,0.304724,0.336998,-0.00380765,0.0170367,0.0592764,-0.0510853,0.210678,-0.00935092
1413393234355760384,-3.29196,2.69778,0.777609,-0.33943,0.704159,0.367297,0.504025,0.214225,0.268299,0.304858,-0.00494336,0.0168742,0.0592591,-0.0318421,0.290594,0.0292876
1413393234405760512,-3.3111,2.69988,0.899484,-0.340931,0.707721,0.349134,0.510884,0.226715,0.211439,0.243628,-0.00448968,0.0169595,0.0592257,-0.0321859,0.268721,0.0203774
1413393234455760384,-3.27635,2.70596,0.883013,-0.353743,0.70758,0.34413,0.505738,0.231664,0.168564,0.204802,-0.0053779,0.0166483,0.0591839,-0.0212511,0.355822,0.0422111
1413393234505760512,-3.27372,2.71806,0.896183,-0.351045,0.710481,0.333705,0.510515,0.255343,0.0914751,0.165325,-0.00523186,0.0167579,0.0591604,-0.0185298,0.337203,0.0453847
1413393234555760384,-3.25995,2.72028,0.903527,-0.346241,0.712651,0.32685,0.515185,0.291011,0.0030652,0.210205,-0.00524011,0.0167666,0.0591952,-0.0167202,0.338189,0.0454389
1413393234605760512,-3.24451,2.71861,0.9131,-0.334026,0.713891,0.324983,0.52266,0.323476,-0.0594956,0.212855,-0.00524889,0.016782,0.0592364,-0.0144972,0.33868,0.0469415
1413393234655760384,-3.22726,2.71408,0.926306,-0.315732,0.712675,0.326979,0.534316,0.339023,-0.13887,0.283753,-0.00525419,0.0168129,0.0592488,-0.0134296,0.338989,0.0482997
1413393234705760512,-3.2112,2.7052,0.944438,-0.293868,0.712574,0.330999,0.544352,0.324917,-0.222053,0.431497,-0.00525794,0.0168459,0.0592883,-0.0128458,0.335102,0.0503072
1413393234755760384,-3.19605,2.69296,0.966693,-0.27452,0.714835,0.332801,0.550358,0.295025,-0.266059,0.453874,-0.00526505,0.0168658,0.0593226,-0.0120892,0.333186,0.0521966
1413393234805760512,-3.17856,2.67737,0.98714,-0.2563,0.719415,0.333488,0.552756,0.262799,-0.286226,0.448912,-0.00526728,0.016835,0.0593191,-0.0124517,0.362481,0.0502473
1413393234855760384,-3.16723,2.6635,1.00893,-0.241754,0.725912,0.331479,0.552023,0.234534,-0.294975,0.375953,-0.00525231,0.0168971,0.0593577,-0.0101315,0.349997,0.0586231
1413393234905760512,-3.15572,2.6487,1.0254,-0.233677,0.734118,0.32477,0.548626,0.208832,-0.293151,0.286161,-0.0052445,0.0169077,0.0593997,-0.00996402,0.354005,0.0594696
1413393234955760384,-3.14831,2.63562,1.04017,-0.227565,0.741258,0.316565,0.546385,0.181151,-0.285002,0.180694,-0.00523607,0.0169461,0.0594638,-0.00900269,0.336288,0.0609181
1413393235005760512,-3.14061,2.62183,1.0457,-0.225537,0.748834,0.304918,0.543513,0.16205,-0.279499,0.0776368,-0.00523007,0.0169522,0.0595173,-0.00902084,0.329524,0.0602019
1413393235055760384,-3.13331,2.60819,1.0471,-0.224777,0.755393,0.29204,0.541821,0.15557,-0.274715,-0.0239101,-0.0052319,0.0170144,0.0595767,-0.0086609,0.323537,0.0615388
1413393235105760512,-3.12561,2.59427,1.0437,-0.223119,0.761365,0.279081,0.540976,0.153168,-0.277121,-0.117234,-0.00522245,0.0170146,0.0595903,-0.00710607,0.3228,0.0631051
1413393235155760384,-3.11784,2.58014,1.03567,-0.21919,0.76696,0.267596,0.540482,0.159166,-0.277585,-0.192577,-0.00521696,0.017014,0.0596289,-0.00558374,0.324986,0.0625758
1413393235205760512,-3.10995,2.56623,1.0254,-0.210552,0.77041,0.259439,0.54298,0.160489,-0.280905,-0.212352,-0.00522038,0.0170273,0.0596703,-0.00503571,0.324748,0.0602023
1413393235255760384,-3.10194,2.55209,1.01478,-0.198819,0.774494,0.253616,0.544342,0.160544,-0.2841,-0.230443,-0.00522,0.017064,0.059693,-0.00390018,0.321006,0.0658176
1413393235305760512,-3.094,2.53814,1.00421,-0.185382,0.777843,0.249504,0.546207,0.158871,-0.276293,-0.208958,-0.0052121,0.0170706,0.0597165,-0.00373516,0.320119,0.06594
1413393235355760384,-3.08675,2.52495,0.99457,-0.173466,0.781656,0.246236,0.54616,0.152813,-0.257375,-0.20093,-0.00521998,0.0171233,0.059761,-0.00474115,0.313101,0.0702191
1413393235405760512,-3.07999,2.51307,0.986588,-0.162031,0.785399,0.244807,0.544944,0.146448,-0.229809,-0.179957,-0.00520248,0.0171758,0.0598158,-0.00461621,0.303769,0.072886
1413393235455760384,-3.07347,2.50261,0.979116,-0.152843,0.788714,0.242396,0.543888,0.154569,-0.196248,-0.161307,-0.00516154,0.0172416,0.0598483,-0.00504223,0.292527,0.0806214
1413393235505760512,-3.0665,2.49301,0.970905,-0.143853,0.792159,0.240234,0.54229,0.162197,-0.158703,-0.128251,-0.005061,0.0172502,0.0598368,-0.00586597,0.290392,0.0811907
1413393235555760384,-3.06967,2.48516,0.969834,-0.12389,0.795582,0.225371,0.548552,0.167911,-0.113502,-0.0836135,-0.00399402,0.017247,0.0596094,-0.00991883,0.281528,0.0788917
1413393235605760512,-3.06845,2.48501,0.975579,-0.108923,0.794262,0.223381,0.554423,0.159808,-0.067604,-0.0995315,-0.00365875,0.017282,0.059574,-0.0104003,0.273182,0.0787448
1413393235655760384,-3.0616,2.48398,0.970729,-0.100131,0.792425,0.222099,0.559204,0.15404,-0.0113875,-0.0787265,-0.00359635,0.01728,0.0595906,-0.0106719,0.274478,0.077406
1413393235705760512,-3.05641,2.48553,0.967643,-0.0938341,0.790302,0.218497,0.564693,0.131264,0.0545037,-0.0807787,-0.00343193,0.0172736,0.0596182,-0.0135,0.274362,0.0716552
1413393235755760384,-3.05358,2.49341,0.962752,-0.0913961,0.790358,0.211843,0.567541,0.109356,0.113113,-0.0717051,-0.00322364,0.0172747,0.0595826,-0.0131987,0.279498,0.0719351
1413393235805760512,-3.02696,2.49169,0.941875,-0.110447,0.785285,0.228997,0.564527,0.0713068,0.174758,-0.0668534,-0.00478073,0.0174381,0.0599007,-0.00365081,0.28327,0.10609
1413393235855760384,-3.01701,2.4942,0.936094,-0.11929,0.788922,0.219128,0.561565,0.0508935,0.213983,-0.0710493,-0.00476961,0.0176003,0.0595903,0.0242382,0.297365,0.183611
1413393235905760512,-3.01545,2.50558,0.934724,-0.130298,0.789908,0.207817,0.562032,0.0262821,0.234907,-0.0748182,-0.00473227,0.017613,0.0596402,0.0241301,0.295206,0.180389
1413393235955760384,-3.01506,2.51793,0.931178,-0.140382,0.79121,0.196278,0.561921,0.012787,0.250705,-0.0630488,-0.00470623,0.0176262,0.0596674,0.0238603,0.291372,0.178928
1413393236005760512,-3.01524,2.53041,0.929837,-0.146102,0.791489,0.186488,0.563402,0.00179632,0.240306,-0.0373546,-0.00466857,0.0176531,0.0597191,0.0240464,0.287852,0.179076
1413393236055760384,-3.01696,2.54305,0.930648,-0.150375,0.792588,0.174755,0.564493,0.00623887,0.230782,-0.0343048,-0.00460864,0.0176511,0.059749,0.0223271,0.282652,0.175863
1413393236105760512,-3.01646,2.55439,0.930802,-0.151353,0.794119,0.164676,0.565111,0.0312055,0.221881,0.00676619,-0.00458325,0.0176707,0.0597797,0.0207129,0.279419,0.176555
1413393236155760384,-3.01584,2.56295,0.930999,-0.149636,0.795936,0.154609,0.565855,0.0131371,0.167458,0.0154717,-0.00455676,0.0176959,0.059791,0.0200028,0.275163,0.177407
1413393236205760512,-3.01646,2.57236,0.933137,-0.141378,0.798804,0.147073,0.565945,0.00565711,0.133671,0.0480309,-0.0045099,0.0177083,0.0598119,0.0185953,0.271698,0.177817
1413393236255760384,-3.0128,2.5764,0.938108,-0.132606,0.801365,0.144277,0.565168,-0.0201842,0.113625,0.0860761,-0.00469907,0.017686,0.0598575,0.0179016,0.283966,0.180476
1413393236305760512,-3.01797,2.58289,0.940991,-0.116074,0.804289,0.137466,0.566348,-0.00243541,0.085703,0.0709359,-0.00448018,0.0177435,0.059843,0.0168706,0.268514,0.183586
1413393236355760384,-3.01679,2.58824,0.948534,-0.105164,0.806201,0.132024,0.567055,0.00017064,0.0866537,0.106389,-0.00455045,0.0177385,0.0598879,0.0160021,0.271823,0.18699
1413393236405760512,-3.0173,2.59278,0.952503,-0.0963281,0.808873,0.123861,0.56666,0.00137968,0.101802,0.106307,-0.0045382,0.017777,0.0599132,0.0145277,0.266628,0.19366
1413393236455760384,-3.0177,2.59782,0.957686,-0.0891045,0.810887,0.114608,0.566911,-0.0017233,0.0965902,0.0945291,-0.00452037,0.0177959,0.0599269,0.0126653,0.260437,0.200867
1413393236505760512,-3.01793,2.60308,0.962784,-0.0830497,0.814627,0.104468,0.564422,0.00614728,0.0956727,0.0956142,-0.0045191,0.0178354,0.0599448,0.0105272,0.253905,0.207634
1413393236555760384,-3.01745,2.60838,0.968117,-0.0766377,0.819042,0.0947687,0.560639,0.0175994,0.104234,0.104032,-0.0045113,0.0178494,0.0599668,0.0102931,0.251042,0.21135
1413393236605760512,-3.01625,2.61378,0.973239,-0.0706726,0.824826,0.084868,0.554496,0.0325453,0.112789,0.107145,-0.00451049,0.017857,0.059965,0.00992047,0.250493,0.2133
1413393236655760384,-3.01379,2.61927,0.97687,-0.0656311,0.829815,0.0750229,0.549065,0.0599568,0.120675,0.0570028,-0.00449178,0.01785,0.0599881,0.0110795,0.252726,0.215976
1413393236705760512,-3.01035,2.62537,0.977756,-0.0626587,0.832554,0.0659881,0.546419,0.0687294,0.128682,0.00311601,-0.00448869,0.0178631,0.0600113,0.00967259,0.25325,0.217363
1413393236755760384,-2.9746,2.61035,0.962304,-0.081355,0.831739,0.0767231,0.543788,0.0823167,0.12975,-0.0402206,-0.00601376,0.0175599,0.060413,0.00478232,0.338227,0.203084
1413393236805760512,-2.97397,2.61355,0.950953,-0.0798636,0.832073,0.0635971,0.54519,0.106175,0.129176,-0.0834554,-0.00580258,0.0176607,0.0604162,0.00573505,0.317288,0.208776
1413393236855760384,-2.99461,2.63642,0.966488,-0.0667431,0.831969,0.040459,0.549305,0.145264,0.117694,-0.0763029,-0.00475291,0.0178174,0.0602231,0.00417975,0.272242,0.213181
1413393236905760512,-2.9903,2.64479,0.981167,-0.0671362,0.830201,0.0373243,0.552147,0.1715,0.0983107,-0.00740866,-0.00492826,0.0178199,0.0603437,2.50629e-05,0.275012,0.207336
1413393236955760384,-2.98089,2.64892,0.98112,-0.0637974,0.827376,0.0343222,0.556957,0.204659,0.0729111,0.0334763,-0.00493302,0.0178276,0.0603788,0.000965961,0.273238,0.210078
1413393237005760512,-2.96979,2.65238,0.985656,-0.059015,0.824519,0.0340072,0.56172,0.223191,0.0617318,0.122765,-0.00492243,0.0178352,0.0604034,0.00029692,0.273292,0.212516
1413393237055760384,-2.95899,2.65474,0.992785,-0.0535161,0.822302,0.0352687,0.565431,0.224462,0.0366383,0.19013,-0.00493873,0.0178618,0.0604434,-0.0013901,0.272296,0.215038
1413393237105760512,-2.94732,2.65673,1.00353,-0.046517,0.82026,0.0385254,0.568793,0.234222,0.0313536,0.26213,-0.00495125,0.0178684,0.0604703,-0.0020805,0.271093,0.218199
1413393237155760384,-2.93533,2.65848,1.01596,-0.0386452,0.817323,0.0434963,0.573234,0.238995,0.0415939,0.245627,-0.00494527,0.0178859,0.0604855,-0.00249767,0.270015,0.221609
1413393237205760512,-2.92345,2.66072,1.02717,-0.0312221,0.815174,0.0489682,0.576297,0.232325,0.0565483,0.201928,-0.00495858,0.0178887,0.0605113,-0.00317467,0.270076,0.224049
1413393237255760384,-2.91136,2.66376,1.03553,-0.0261413,0.813644,0.0529112,0.578361,0.236982,0.0660401,0.133186,-0.00495212,0.0179036,0.0605353,-0.00244294,0.271371,0.226664
1413393237305760512,-2.89982,2.66776,1.03999,-0.0220508,0.813645,0.0564583,0.578194,0.218878,0.0964615,0.0792471,-0.0049441,0.0178964,0.0605419,-0.00242817,0.271675,0.228085
1413393237355760384,-2.88952,2.6735,1.04166,-0.0195243,0.813751,0.0597478,0.577805,0.197965,0.130691,0.00931677,-0.00494589,0.0179124,0.0605844,-0.00258955,0.26978,0.232033
1413393237405760512,-2.88004,2.68053,1.03946,-0.0188167,0.812998,0.0612676,0.578728,0.18466,0.152273,-0.0592582,-0.00494103,0.0179062,0.0606145,-0.00344135,0.269877,0.232407
1413393237455760384,-2.8711,2.68931,1.03558,-0.0216399,0.812612,0.0607952,0.579221,0.170901,0.194541,-0.0889133,-0.00493325,0.0179301,0.0606405,-0.00428909,0.270037,0.231751
1413393237505760512,-2.86274,2.69983,1.03109,-0.0282522,0.812349,0.0581915,0.579573,0.165,0.222121,-0.105229,-0.00492765,0.0179704,0.0606822,-0.0048773,0.269525,0.233754
1413393237555760384,-2.85485,2.71136,1.02608,-0.0370368,0.812917,0.0539174,0.578695,0.150928,0.236894,-0.0961672,-0.0049064,0.0179701,0.0607179,-0.00375153,0.269248,0.234805
1413393237605760512,-2.84753,2.72358,1.02205,-0.0461294,0.812867,0.0493995,0.578515,0.14355,0.241287,-0.0929529,-0.00491399,0.0179861,0.0607148,-0.00359639,0.267228,0.236986
1413393237655760384,-2.84036,2.73543,1.01665,-0.0550806,0.814412,0.0448983,0.575919,0.138425,0.232697,-0.0799841,-0.00491717,0.0179598,0.0607404,-0.000937241,0.268066,0.237105
1413393237705760512,-2.8335,2.74707,1.01302,-0.062208,0.815115,0.0416435,0.574442,0.137665,0.216967,-0.0887751,-0.00489422,0.017975,0.0607537,-0.00172011,0.26589,0.241029
1413393237755760384,-2.82687,2.75764,1.00874,-0.0670134,0.81613,0.0400774,0.572568,0.133746,0.193463,-0.0769884,-0.00488745,0.0180049,0.0607988,-0.00244124,0.26365,0.243927
1413393237805760512,-2.81988,2.76674,1.00489,-0.0700148,0.817046,0.0396051,0.570934,0.144851,0.167585,-0.0527318,-0.00487654,0.0180192,0.0608361,-0.00211787,0.262991,0.245084
1413393237855760384,-2.81265,2.77444,1.00208,-0.0699239,0.818504,0.0411589,0.568742,0.154697,0.143664,-0.0606738,-0.00485254,0.0180228,0.0608586,-0.00219123,0.262948,0.246882
1413393237905760512,-2.80475,2.7809,1.00016,-0.0679435,0.820333,0.0439365,0.566133,0.156947,0.116699,-0.0368085,-0.00485519,0.0180534,0.060906,-0.00353367,0.262442,0.247551
1413393237955760384,-2.79671,2.78616,0.99819,-0.0656862,0.821451,0.0461412,0.564601,0.158084,0.0891586,-0.0482355,-0.00484287,0.0180501,0.060963,-0.004362,0.263408,0.247608
1413393238005760512,-2.78851,2.7903,0.994958,-0.0582694,0.824197,0.0518522,0.560906,0.165021,0.0745646,-0.0514731,-0.00483294,0.0180602,0.0609798,-0.00431862,0.264196,0.250098
1413393238055760384,-2.7796,2.79406,0.992445,-0.0512814,0.826192,0.0572941,0.558117,0.186553,0.0786195,-0.0336555,-0.00481945,0.0180715,0.0609959,-0.00337842,0.263825,0.249193
1413393238105760512,-2.76994,2.79786,0.990369,-0.0459824,0.828267,0.0609117,0.555113,0.20569,0.0778621,-0.0294387,-0.00480106,0.0180615,0.0610168,-0.00224188,0.263275,0.251573
1413393238155760384,-2.75942,2.80189,0.98997,-0.0407278,0.828667,0.0631772,0.554672,0.220059,0.078454,-0.00068751,-0.00478482,0.0180678,0.0610211,-0.00190672,0.262673,0.252627
1413393238205760512,-2.74794,2.80675,0.990891,-0.0365278,0.829268,0.0645756,0.553904,0.243858,0.106784,0.0121173,-0.00477414,0.0180748,0.0610445,-0.000921503,0.261949,0.253197
1413393238255760384,-2.73595,2.81273,0.993181,-0.0332657,0.829463,0.0653519,0.553727,0.241997,0.124705,0.0687108,-0.00476362,0.0180845,0.0610714,-0.00130122,0.257973,0.25571
1413393238305760512,-2.72354,2.81974,0.996172,-0.0301884,0.829956,0.0643026,0.553288,0.272976,0.143369,0.133084,-0.00475016,0.0181216,0.0611126,-0.0024783,0.253188,0.253531
1413393238355760384,-2.71012,2.82858,1.00419,-0.0288694,0.830459,0.0627797,0.552778,0.299974,0.183584,0.166058,-0.00472025,0.0181428,0.0611249,-0.00342904,0.249848,0.251729
1413393238405760512,-2.69472,2.83864,1.01566,-0.0283561,0.830083,0.0606749,0.553604,0.339331,0.209687,0.232186,-0.00468301,0.0181593,0.0611748,-0.00311789,0.245985,0.246816
1413393238455760384,-2.67789,2.85018,1.03301,-0.0308945,0.829015,0.0564757,0.555509,0.354545,0.233052,0.259538,-0.00465048,0.0181435,0.0611847,-0.00070676,0.242484,0.241213
1413393238505760512,-2.66012,2.86217,1.04986,-0.03684,0.828305,0.0498091,0.556841,0.367064,0.249828,0.228163,-0.00461937,0.0181581,0.0612351,-0.00181625,0.239343,0.235513
1413393238555760384,-2.64194,2.87474,1.06072,-0.0445216,0.826371,0.0419417,0.559795,0.368616,0.256894,0.17378,-0.00461228,0.0181228,0.0612601,-0.000916601,0.235619,0.230359
1413393238605760512,-2.62333,2.88756,1.0682,-0.0531295,0.824533,0.0339509,0.56229,0.387031,0.248351,0.115014,-0.00459505,0.0181576,0.0612962,-0.00321635,0.233772,0.229856
1413393238655760384,-2.60414,2.89989,1.07386,-0.0609832,0.823451,0.0264422,0.563481,0.400368,0.229392,0.0697569,-0.00459242,0.0181315,0.0613209,-0.00164519,0.231989,0.228261
1413393238705760512,-2.58332,2.91087,1.07333,-0.0669914,0.822558,0.0207773,0.56434,0.407854,0.206694,0.00274624,-0.00458757,0.0181174,0.0613231,-0.00162975,0.232333,0.229238
1413393238755760384,-2.56268,2.91995,1.07457,-0.0715098,0.821805,0.0163497,0.565028,0.417913,0.169804,-0.037126,-0.00459088,0.0181225,0.0613594,-0.00114499,0.232625,0.231913
1413393238805760512,-2.54117,2.92736,1.07244,-0.0726317,0.821033,0.014485,0.566056,0.427968,0.133939,-0.0500916,-0.00459557,0.0181532,0.0613967,0.00274436,0.233714,0.234012
1413393238855760384,-2.51956,2.93306,1.06849,-0.0706353,0.820779,0.0151388,0.56666,0.435233,0.0861136,-0.0398598,-0.00461263,0.0181299,0.0614129,0.00707028,0.235093,0.234566
1413393238905760512,-2.49805,2.93619,1.06702,-0.0664447,0.820607,0.018138,0.567328,0.450724,0.0469306,-0.0259843,-0.00467312,0.018092,0.0614191,0.0121564,0.242867,0.234423
1413393238955760384,-2.46511,2.94199,1.06605,-0.0685222,0.82168,0.0339788,0.564794,0.44822,0.0246037,-0.0102328,-0.00547345,0.0179691,0.0614725,0.0325378,0.299298,0.274059
1413393239005760512,-2.44518,2.93993,1.09815,-0.0607647,0.821157,0.0376151,0.56621,0.450298,0.00049629,0.00819959,-0.00544832,0.0177722,0.0614453,0.0344507,0.343956,0.269555
1413393239055760384,-2.42196,2.94008,1.09879,-0.0532084,0.821276,0.043335,0.566389,0.453751,0.0177506,0.0050437,-0.00547847,0.0177563,0.0614729,0.0343729,0.348795,0.269246
1413393239105760512,-2.39871,2.94041,1.09751,-0.046937,0.821073,0.0475213,0.566903,0.454414,0.00370353,-0.0068672,-0.00548393,0.0177481,0.0614951,0.0340501,0.352921,0.270236
1413393239155760384,-2.37561,2.94093,1.09661,-0.0423668,0.820822,0.0501968,0.567395,0.45841,0.0223361,0.014754,-0.00548628,0.017778,0.0615265,0.031878,0.356976,0.268603
1413393239205760512,-2.35251,2.94248,1.09625,-0.0385726,0.821103,0.053272,0.566978,0.462263,0.0491715,-0.0025462,-0.00548703,0.0177852,0.0615363,0.0305548,0.357931,0.268998
1413393239255760384,-2.32943,2.94483,1.09664,-0.0367399,0.820729,0.0537958,0.567591,0.461584,0.0449993,0.00380539,-0.00548642,0.0177865,0.0615663,0.0295926,0.358444,0.269314
1413393239305760512,-2.30624,2.94788,1.09684,-0.0343206,0.820938,0.0546104,0.567364,0.465595,0.0758636,0.0123699,-0.00548149,0.0178073,0.0615847,0.0277986,0.358615,0.26836
1413393239355760384,-2.28286,2.95225,1.09738,-0.0333526,0.821568,0.0554875,0.566423,0.466141,0.0993992,0.0229587,-0.00547045,0.0178213,0.0616015,0.0278643,0.360489,0.269316
1413393239405760512,-2.25935,2.95742,1.09856,-0.0327798,0.821838,0.0552239,0.56609,0.470106,0.111849,0.0270753,-0.00546851,0.0178533,0.0616385,0.0276039,0.361005,0.268494
1413393239455760384,-2.23573,2.96393,1.10021,-0.0332922,0.822497,0.0545523,0.565168,0.467909,0.144687,0.0336105,-0.00545597,0.0178556,0.0616633,0.0278734,0.36158,0.268264
1413393239505760512,-2.21196,2.97151,1.10319,-0.0311519,0.822453,0.0563142,0.565181,0.474862,0.160477,0.0652319,-0.00545442,0.0178408,0.0617027,0.0287961,0.362602,0.268672
1413393239555760384,-2.18829,2.98038,1.10656,-0.0332221,0.822934,0.0545269,0.564538,0.472897,0.184813,0.0664845,-0.00546041,0.0178454,0.0617346,0.0282058,0.362819,0.269524
1413393239605760512,-2.16466,2.99054,1.11047,-0.0372434,0.823539,0.0524431,0.563601,0.474413,0.220361,0.0771201,-0.00545207,0.017865,0.0617469,0.0292384,0.363033,0.270761
1413393239655760384,-2.14084,3.0017,1.11493,-0.0443192,0.823812,0.0476006,0.56312,0.482175,0.224785,0.0980447,-0.00545024,0.0178745,0.0617789,0.0308553,0.362929,0.269188
1413393239705760512,-2.11656,3.01311,1.11943,-0.0547171,0.824254,0.0401217,0.56214,0.490215,0.221754,0.0957848,-0.00546245,0.0178661,0.0617881,0.0316201,0.361986,0.271948
1413393239755760384,-2.09169,3.02408,1.12424,-0.06326,0.824301,0.0345092,0.561548,0.501334,0.219331,0.0874303,-0.00544568,0.0178779,0.0618034,0.0325477,0.364,0.270098
1413393239805760512,-2.06626,3.03418,1.12887,-0.0686088,0.824488,0.0308188,0.56086,0.516528,0.184169,0.0892936,-0.00544564,0.017886,0.0618181,0.0334081,0.364432,0.269703
1413393239855760384,-2.04031,3.04294,1.1328,-0.0712003,0.825546,0.0287025,0.559089,0.521827,0.165915,0.0623474,-0.00544458,0.0179119,0.0618285,0.0345132,0.365791,0.268454
1413393239905760512,-2.01378,3.05067,1.13632,-0.0692179,0.82609,0.0302647,0.558451,0.536141,0.142907,0.0737333,-0.00543473,0.0179169,0.0618737,0.0355698,0.366455,0.269092
1413393239955760384,-1.9865,3.05715,1.13936,-0.0677075,0.826079,0.0312807,0.558598,0.553508,0.11888,0.0795281,-0.0054344,0.0179058,0.0618825,0.0367743,0.367681,0.268688
1413393240005760512,-1.95839,3.0625,1.143,-0.0638053,0.825088,0.0340115,0.56036,0.566945,0.100501,0.0737678,-0.00543038,0.0179196,0.0619152,0.0379643,0.369672,0.268875
1413393240055760384,-1.92986,3.06719,1.14698,-0.059001,0.824089,0.0377877,0.562111,0.570834,0.0849229,0.083214,-0.00541786,0.0179186,0.0619285,0.0381568,0.370432,0.270082
1413393240105760512,-1.90114,3.07117,1.15158,-0.0521358,0.822213,0.0428193,0.565168,0.574718,0.070751,0.0942381,-0.00542469,0.0179195,0.0619602,0.0383206,0.370508,0.270482
1413393240155760384,-1.87252,3.07523,1.15557,-0.0462551,0.820713,0.0476279,0.56747,0.572758,0.085669,0.0631626,-0.00541699,0.0179378,0.0619903,0.037254,0.369745,0.272217
1413393240205760512,-1.84429,3.07979,1.15803,-0.0423727,0.81938,0.0512456,0.569381,0.557083,0.0972866,0.0216292,-0.00541014,0.0179426,0.0620109,0.0364637,0.370152,0.273977
1413393240255760384,-1.81643,3.08491,1.15783,-0.0394475,0.819418,0.0539512,0.569287,0.552161,0.11043,-0.0304659,-0.00540332,0.0179457,0.0620371,0.0366963,0.37131,0.275197
1413393240305760512,-1.78901,3.09097,1.15473,-0.0404924,0.819452,0.0534645,0.569211,0.548093,0.133825,-0.0847217,-0.00539322,0.0179506,0.0620641,0.0375516,0.371431,0.276808
1413393240355760384,-1.76155,3.0979,1.14917,-0.0423588,0.819351,0.052565,0.569304,0.547983,0.146144,-0.136807,-0.00538476,0.0179793,0.0620712,0.0357042,0.371938,0.277401
1413393240405760512,-1.73384,3.10552,1.14112,-0.0470321,0.819341,0.0492028,0.569252,0.55967,0.158308,-0.178001,-0.00539144,0.0180105,0.0620955,0.0352013,0.373029,0.278312
1413393240455760384,-1.70599,3.11339,1.13136,-0.0512754,0.818799,0.046436,0.569897,0.553653,0.157443,-0.221968,-0.0053931,0.0180153,0.062108,0.0355676,0.3728,0.278246
1413393240505760512,-1.67882,3.12122,1.11972,-0.0573032,0.818752,0.0420165,0.569734,0.532946,0.153591,-0.235881,-0.00539485,0.0180362,0.0621285,0.0356374,0.37372,0.278256
1413393240555760384,-1.65249,3.12869,1.10899,-0.0617033,0.818268,0.0385931,0.570211,0.517576,0.143615,-0.200189,-0.00539855,0.0180474,0.06215,0.0355424,0.37491,0.276943
1413393240605760512,-1.62693,3.13542,1.10078,-0.0652132,0.817966,0.0355904,0.570449,0.495445,0.124984,-0.153072,-0.0053793,0.0180524,0.0621852,0.034758,0.376305,0.276865
1413393240655760384,-1.6015,3.14118,1.09491,-0.0661506,0.81795,0.0339949,0.570461,0.52597,0.108232,-0.0928027,-0.00537721,0.0180497,0.0622211,0.0339208,0.377004,0.27575
1413393240705760512,-1.57439,3.14608,1.094,-0.0650628,0.8182,0.0333465,0.570267,0.558702,0.0859616,0.0494518,-0.00537292,0.0180439,0.0622372,0.0318979,0.378471,0.276089
1413393240755760384,-1.54641,3.15008,1.09902,-0.0611474,0.817404,0.0344381,0.571775,0.554652,0.0738447,0.108301,-0.00537068,0.0180555,0.0622579,0.02976,0.379015,0.275916
1413393240805760512,-1.5187,3.15346,1.10519,-0.0570446,0.815963,0.0356338,0.574178,0.556752,0.0615521,0.134081,-0.00536593,0.0180373,0.0622767,0.0281004,0.381002,0.275249
1413393240855760384,-1.49133,3.15661,1.11101,-0.0518033,0.814402,0.0379216,0.576739,0.544098,0.0651124,0.106848,-0.00535941,0.0180512,0.0623075,0.0262136,0.381714,0.274228
1413393240905760512,-1.4644,3.15968,1.11489,-0.0486563,0.811836,0.0385498,0.580576,0.526503,0.054942,0.0516922,-0.00534989,0.0180719,0.0623541,0.025034,0.382161,0.273531
1413393240955760384,-1.43913,3.16273,1.11575,-0.045836,0.809194,0.0382851,0.584498,0.489149,0.0580921,-0.0153683,-0.00534625,0.0180906,0.062381,0.0243958,0.382717,0.273216
1413393241005760512,-1.41506,3.16603,1.11352,-0.0437269,0.806593,0.0381632,0.588252,0.479103,0.0677328,-0.067938,-0.00533465,0.0180896,0.0623974,0.0235924,0.382882,0.271911
1413393241055760384,-1.39132,3.16941,1.10865,-0.0436426,0.804529,0.0363768,0.59119,0.466051,0.0650976,-0.120589,-0.00535422,0.0181075,0.0624111,0.0223242,0.38284,0.271621
1413393241105760512,-1.36854,3.17299,1.10048,-0.0462439,0.804054,0.0328714,0.591843,0.443636,0.0750168,-0.188929,-0.00535228,0.0181161,0.062437,0.0215863,0.383568,0.271797
1413393241155760384,-1.34707,3.17652,1.08993,-0.0507419,0.80431,0.0276244,0.591395,0.413235,0.0692715,-0.244226,-0.00535241,0.0181184,0.0624496,0.0209395,0.384008,0.272235
1413393241205760512,-1.32677,3.17992,1.07694,-0.0553082,0.805258,0.0230008,0.589891,0.397236,0.0652184,-0.266647,-0.00538986,0.0181268,0.0624572,0.0197446,0.382572,0.271961
1413393241255760384,-1.30751,3.18288,1.06362,-0.0590617,0.80674,0.018604,0.587653,0.375331,0.0491777,-0.270342,-0.00538791,0.0181399,0.062462,0.0191228,0.380148,0.270901
1413393241305760512,-1.28917,3.18506,1.05103,-0.0616074,0.809282,0.0151857,0.583984,0.36237,0.0271087,-0.25179,-0.00538745,0.0181501,0.0624788,0.0186739,0.378721,0.269852
1413393241355760384,-1.27143,3.18595,1.03806,-0.060783,0.814565,0.0141525,0.576705,0.346138,0.00988062,-0.245165,-0.00540742,0.0181701,0.0624939,0.0183453,0.378476,0.269385
1413393241405760512,-1.25411,3.18594,1.02623,-0.0604388,0.818206,0.0129715,0.571593,0.342578,-0.0154682,-0.232219,-0.00540259,0.0181838,0.0625278,0.0185286,0.378278,0.267959
1413393241455760384,-1.23698,3.18466,1.01578,-0.0572123,0.820692,0.0136738,0.568335,0.343594,-0.040281,-0.197051,-0.00539601,0.0182043,0.062561,0.0172901,0.381134,0.266214
1413393241505760512,-1.21988,3.18276,1.00831,-0.0524585,0.821674,0.0163398,0.567304,0.344112,-0.0457219,-0.162213,-0.00537824,0.0182086,0.0626031,0.0173346,0.384839,0.261708
1413393241555760384,-1.20245,3.18002,1.00072,-0.0474686,0.820969,0.0189593,0.568681,0.354236,-0.0656727,-0.158975,-0.00536452,0.0182166,0.0626353,0.0179468,0.386783,0.25909
1413393241605760512,-1.18466,3.17685,0.99323,-0.0418914,0.819123,0.0222354,0.571654,0.358216,-0.0626103,-0.158984,-0.00536267,0.0182257,0.0626523,0.0176716,0.388421,0.257232
1413393241655760384,-1.1669,3.17399,0.986777,-0.0379493,0.817685,0.0251559,0.573863,0.35428,-0.0521643,-0.148184,-0.00534419,0.01823,0.0626923,0.0168451,0.391582,0.254718
1413393241705760512,-1.14917,3.17142,0.979614,-0.0336469,0.816089,0.0282482,0.576254,0.353867,-0.0524314,-0.152873,-0.00534612,0.0182584,0.0627088,0.0164495,0.391266,0.252614
1413393241755760384,-1.13166,3.16919,0.971773,-0.0315842,0.81571,0.0295101,0.576844,0.35216,-0.0429435,-0.144685,-0.0053348,0.0182633,0.0627456,0.015674,0.391792,0.250016
1413393241805760512,-1.11422,3.16774,0.96435,-0.0294826,0.816334,0.031646,0.575958,0.344558,-0.0213106,-0.147139,-0.00532439,0.0182712,0.0627619,0.0157665,0.390243,0.24821
1413393241855760384,-1.09695,3.16683,0.957405,-0.0283728,0.81679,0.0333596,0.57527,0.344811,-0.0129464,-0.138693,-0.00531895,0.0182857,0.0627921,0.0147913,0.392719,0.246977
1413393241905760512,-1.08002,3.16707,0.952135,-0.0279435,0.815787,0.0340564,0.576672,0.337326,0.00526044,-0.0962466,-0.00531556,0.0183004,0.0628048,0.0131737,0.391844,0.244687
1413393241955760384,-1.06367,3.16817,0.947523,-0.0278236,0.813398,0.0359876,0.579926,0.323235,0.031835,-0.0944458,-0.00530571,0.0182976,0.0628469,0.0107672,0.392813,0.242279
1413393242005760512,-1.04784,3.1701,0.942798,-0.0285948,0.811648,0.0367763,0.582287,0.315628,0.0386123,-0.0929722,-0.00530397,0.0183083,0.0628745,0.0096356,0.393641,0.239839
1413393242055760384,-1.03263,3.17276,0.938816,-0.0292208,0.80874,0.0380059,0.586209,0.296912,0.0689023,-0.0681656,-0.00529818,0.0183236,0.0629085,0.00856104,0.394267,0.238615
1413393242105760512,-1.01842,3.17647,0.935506,-0.0298914,0.806191,0.0396708,0.589566,0.27678,0.0824066,-0.0582318,-0.00529376,0.0183473,0.0629304,0.00802608,0.394803,0.23605
1413393242155760384,-1.00525,3.18072,0.932999,-0.0328553,0.802673,0.0387083,0.594254,0.253391,0.0881471,-0.0482661,-0.00529333,0.0183198,0.0629546,0.00718709,0.397928,0.234946
1413393242205760512,-0.993583,3.18581,0.93138,-0.0368019,0.798762,0.0374218,0.599354,0.217182,0.113642,-0.0337452,-0.00529031,0.0183466,0.0629787,0.00622736,0.399666,0.232475
1413393242255760384,-0.983523,3.19123,0.930071,-0.039044,0.796177,0.0372814,0.602652,0.18738,0.106701,-0.0274962,-0.00529238,0.0183552,0.0630052,0.0053021,0.400816,0.229752
1413393242305760512,-0.974986,3.1967,0.928933,-0.0416814,0.795158,0.0358341,0.603906,0.153177,0.10607,-0.0233467,-0.00528501,0.0183674,0.0630325,0.00431207,0.402666,0.228076
1413393242355760384,-0.968135,3.20247,0.927495,-0.0455793,0.796372,0.0341149,0.602122,0.124752,0.12176,-0.0353771,-0.00529077,0.0183651,0.0630622,0.00395944,0.403786,0.227192
1413393242405760512,-0.96277,3.20831,0.926096,-0.0509561,0.799735,0.0312022,0.597372,0.0918567,0.116096,-0.0288604,-0.00529309,0.0183747,0.0630825,0.003699,0.404522,0.226325
1413393242455760384,-0.958691,3.214,0.924752,-0.0569158,0.804983,0.0276283,0.589916,0.0692223,0.111003,-0.0244003,-0.00528506,0.018379,0.0630997,0.00337641,0.405755,0.22637
1413393242505760512,-0.955658,3.21905,0.923258,-0.0634581,0.811174,0.0235259,0.580875,0.0501339,0.0993294,-0.0317103,-0.00530137,0.0183861,0.0631159,0.00377038,0.407835,0.225907
1413393242555760384,-0.953442,3.22369,0.922783,-0.0679926,0.816563,0.0209934,0.572854,0.0500444,0.0735483,-0.000195189,-0.0052876,0.0183942,0.0631517,0.00309695,0.405997,0.222424
1413393242605760512,-0.951112,3.22701,0.923284,-0.071203,0.820755,0.0190453,0.566507,0.0528947,0.0435135,0.00927585,-0.00528331,0.0184114,0.0631851,0.00161997,0.403731,0.220122
1413393242655760384,-0.948159,3.2288,0.923247,-0.0726286,0.823502,0.0185257,0.56234,0.0686627,0.0251989,0.0316598,-0.00529235,0.0184402,0.0632031,0.0014011,0.398718,0.220093
1413393242705760512,-0.944405,3.2292,0.92475,-0.0743159,0.824487,0.0171649,0.560718,0.0885387,-0.010801,0.0332475,-0.0052913,0.0184586,0.0632324,0.00104086,0.394297,0.218713
1413393242755760384,-0.939703,3.22818,0.927636,-0.077975,0.824259,0.0155936,0.560601,0.102275,-0.0306552,0.0617926,-0.00529038,0.0184623,0.0632575,0.000682775,0.39297,0.216895
1413393242805760512,-0.934242,3.22598,0.931439,-0.0791662,0.823428,0.0171132,0.561611,0.123064,-0.0670046,0.0638974,-0.00529039,0.0184859,0.0632745,-0.00258941,0.388828,0.214269
1413393242855760384,-0.927875,3.2224,0.936222,-0.0785923,0.822482,0.0218333,0.562912,0.139307,-0.0960415,0.0837775,-0.00529107,0.0185101,0.0633013,-0.00733031,0.385343,0.211779
1413393242905760512,-0.920587,3.21717,0.941901,-0.0734442,0.821281,0.0320996,0.564866,0.153292,-0.110028,0.0747874,-0.00527149,0.0185169,0.0633403,-0.0120489,0.387823,0.208235
1413393242955760384,-0.912694,3.21076,0.945947,-0.0697404,0.821553,0.0420877,0.564284,0.162039,-0.142021,0.0935765,-0.00525861,0.0185239,0.0633629,-0.0138057,0.389339,0.206191
1413393243005760512,-0.904182,3.20344,0.950535,-0.06797,0.822265,0.0525601,0.562582,0.173569,-0.134798,0.0972427,-0.00524641,0.0185096,0.0633948,-0.0137676,0.398778,0.204573
1413393243055760384,-0.895001,3.19635,0.955668,-0.0683155,0.822512,0.0641303,0.560976,0.186756,-0.134507,0.0872175,-0.00523191,0.0185163,0.0634188,-0.0140063,0.40299,0.203686
1413393243105760512,-0.885104,3.1895,0.960704,-0.0705417,0.82296,0.075004,0.55869,0.205885,-0.137374,0.101915,-0.00522865,0.0185149,0.0634347,-0.0138872,0.404856,0.202702
1413393243155760384,-0.874459,3.18321,0.966863,-0.0762105,0.821852,0.0856827,0.558042,0.21868,-0.107686,0.12204,-0.00522231,0.0185259,0.0634584,-0.0138112,0.408131,0.200751
1413393243205760512,-0.863275,3.17795,0.972696,-0.0829581,0.818223,0.0963707,0.560662,0.232478,-0.0964539,0.146099,-0.00521693,0.0185472,0.0634688,-0.0138548,0.407474,0.19891
1413393243255760384,-0.851548,3.17301,0.980209,-0.0891127,0.812552,0.105015,0.566383,0.241868,-0.105678,0.143184,-0.00521006,0.0185558,0.0635056,-0.0139245,0.40933,0.196594
1413393243305760512,-0.839758,3.16856,0.986279,-0.0947388,0.806683,0.113139,0.572265,0.233374,-0.0745164,0.0925617,-0.00520014,0.0185576,0.0635304,-0.0140738,0.409723,0.193638
1413393243355760384,-0.82809,3.16439,0.989135,-0.100821,0.802143,0.119145,0.576373,0.231237,-0.0841146,0.0395861,-0.00519267,0.018553,0.0635582,-0.0142817,0.412554,0.191643
1413393243405760512,-0.817041,3.16037,0.990102,-0.105217,0.797868,0.123968,0.58049,0.211547,-0.0811967,-0.00865053,-0.00518958,0.0185485,0.063578,-0.0150418,0.413405,0.190685
1413393243455760384,-0.807174,3.15677,0.988756,-0.109558,0.794941,0.128507,0.582711,0.189513,-0.0653047,-0.0455451,-0.00517836,0.0185515,0.0635965,-0.0167859,0.416977,0.188139
1413393243505760512,-0.798111,3.15335,0.984964,-0.113203,0.792579,0.131986,0.584452,0.170165,-0.0670917,-0.109162,-0.00517684,0.0185651,0.0636254,-0.0176655,0.417474,0.186391
1413393243555760384,-0.78993,3.15006,0.977928,-0.116521,0.79123,0.134802,0.584984,0.147901,-0.0683921,-0.150167,-0.00517327,0.0185664,0.0636538,-0.0181541,0.417734,0.185225
1413393243605760512,-0.782881,3.14682,0.969705,-0.118576,0.790684,0.137481,0.584687,0.129824,-0.0684147,-0.155884,-0.00516711,0.0185689,0.0636762,-0.0190113,0.416929,0.185219
1413393243655760384,-0.776987,3.14404,0.961704,-0.119778,0.790751,0.140078,0.583734,0.104237,-0.0674075,-0.163182,-0.00517516,0.0186142,0.0636921,-0.0204665,0.413631,0.183894
1413393243705760512,-0.772363,3.14064,0.954038,-0.120005,0.79167,0.142681,0.581808,0.0809675,-0.060481,-0.129082,-0.00518089,0.0186097,0.0637108,-0.0204694,0.415194,0.183145
1413393243755760384,-0.769056,3.13729,0.947311,-0.120463,0.792952,0.144256,0.579574,0.0553179,-0.065335,-0.115175,-0.00516885,0.0185919,0.0637491,-0.0218631,0.41982,0.180837
1413393243805760512,-0.766807,3.13439,0.942128,-0.119956,0.794178,0.146076,0.577541,0.0308405,-0.0646226,-0.0832053,-0.0051746,0.0185941,0.0637708,-0.0227888,0.422481,0.177969
1413393243855760384,-0.765793,3.13182,0.938895,-0.1214,0.7947,0.146402,0.576438,0.0132105,-0.0559534,-0.071715,-0.00517505,0.0185837,0.0637939,-0.0231578,0.424978,0.174671
1413393243905760512,-0.765675,3.12887,0.935677,-0.12089,0.794879,0.147401,0.576043,-0.000318374,-0.0591193,-0.0370546,-0.00516617,0.0185915,0.0638189,-0.0245084,0.424236,0.170945
1413393243955760384,-0.766295,3.12621,0.934135,-0.120938,0.794742,0.147976,0.576075,-0.0173325,-0.0536892,-0.0262593,-0.00515899,0.0185848,0.0638492,-0.0254685,0.424037,0.166715
1413393244005760512,-0.76772,3.12351,0.932954,-0.120717,0.794969,0.148465,0.575683,-0.0291508,-0.0466951,-0.0206357,-0.00515809,0.0186016,0.0638679,-0.0275882,0.422888,0.16482
1413393244055760384,-0.769716,3.12078,0.93326,-0.119365,0.794591,0.149023,0.576341,-0.0419776,-0.0403764,0.000124837,-0.00515599,0.01861,0.063882,-0.028966,0.421333,0.163772
1413393244105760512,-0.772641,3.11806,0.933298,-0.11816,0.794814,0.149522,0.576153,-0.0603854,-0.0318641,0.0232098,-0.00513312,0.0186114,0.0639123,-0.0290927,0.419017,0.160901
1413393244155760384,-0.776323,3.11558,0.934667,-0.117479,0.794869,0.150627,0.575928,-0.0834902,-0.0215729,0.00578748,-0.00511997,0.0186232,0.0639272,-0.0300155,0.418174,0.159628
1413393244205760512,-0.781309,3.11367,0.936151,-0.119178,0.794403,0.152483,0.575734,-0.0999519,0.00300422,0.0103165,-0.00509086,0.0186223,0.0639635,-0.0308528,0.418252,0.156059
1413393244255760384,-0.787277,3.11203,0.937084,-0.120939,0.794092,0.156514,0.574713,-0.117057,0.0135509,0.0157,-0.00504478,0.0186228,0.0639954,-0.0306875,0.416534,0.152981
1413393244305760512,-0.794017,3.11101,0.938024,-0.123258,0.793667,0.161802,0.573341,-0.13354,0.0293473,0.0288397,-0.00501598,0.0186396,0.0640209,-0.0310216,0.414688,0.151778
1413393244355760384,-0.801282,3.11085,0.938591,-0.127304,0.792964,0.168016,0.571641,-0.146284,0.0542594,0.0151614,-0.00498311,0.0186554,0.0640497,-0.031506,0.411364,0.151498
1413393244405760512,-0.808769,3.11102,0.937755,-0.13176,0.791172,0.172701,0.571718,-0.146758,0.0465975,-0.0228048,-0.00494254,0.0186701,0.0640599,-0.0312292,0.40789,0.151799
1413393244455760384,-0.816737,3.11125,0.934703,-0.137011,0.78912,0.175919,0.572338,-0.166146,0.0533809,-0.063531,-0.00491155,0.0186862,0.0640718,-0.030637,0.405205,0.154763
1413393244505760512,-0.825292,3.1119,0.931889,-0.142258,0.787858,0.178733,0.571925,-0.178566,0.0565118,-0.123468,-0.00488067,0.0187129,0.0640708,-0.0294746,0.401624,0.156878
1413393244555760384,-0.835413,3.11271,0.924006,-0.147021,0.786511,0.18049,0.572022,-0.185167,0.0388634,-0.186003,-0.00483932,0.0187587,0.0640828,-0.0283647,0.399235,0.160115
1413393244605760512,-0.84455,3.11334,0.913029,-0.151038,0.786476,0.182442,0.570401,-0.189142,0.048562,-0.212997,-0.00481659,0.0187867,0.0640989,-0.0263333,0.395753,0.165569
1413393244655760384,-0.853667,3.11458,0.901841,-0.154688,0.786573,0.184074,0.568763,-0.18453,0.0490201,-0.178625,-0.0047914,0.0188058,0.0641059,-0.0251064,0.393411,0.16777
1413393244705760512,-0.863368,3.11547,0.894631,-0.157408,0.785697,0.185621,0.568725,-0.220682,0.0268883,-0.106959,-0.00476009,0.0188341,0.0641223,-0.0241432,0.392132,0.169318
1413393244755760384,-0.875168,3.11542,0.890453,-0.161681,0.786604,0.184978,0.566478,-0.238113,0.0155765,-0.0954489,-0.00474594,0.0188635,0.0641327,-0.0232281,0.384486,0.171084
1413393244805760512,-0.88735,3.11563,0.889656,-0.166613,0.786732,0.183417,0.565378,-0.241358,0.00959859,-0.0284526,-0.0047266,0.018871,0.0641431,-0.0215588,0.382993,0.173765
1413393244855760384,-0.899948,3.11569,0.892073,-0.169932,0.787551,0.182631,0.563501,-0.258432,-0.00472303,0.0606426,-0.00472506,0.0188831,0.0641632,-0.0195072,0.382363,0.174832
1413393244905760512,-0.912215,3.11538,0.897823,-0.172356,0.787602,0.181426,0.563082,-0.228503,-0.0172064,0.149157,-0.00472602,0.0188712,0.064183,-0.0179668,0.383608,0.173264
1413393244955760384,-0.923844,3.11411,0.906992,-0.172775,0.787375,0.181384,0.563285,-0.241897,-0.0396128,0.216164,-0.00472054,0.0188752,0.0642078,-0.0180098,0.386636,0.173369
1413393245005760512,-0.936277,3.11154,0.917034,-0.169912,0.788537,0.18345,0.56186,-0.244278,-0.0605425,0.20009,-0.00471738,0.0188878,0.0642302,-0.0170836,0.386252,0.170764
1413393245055760384,-0.948777,3.1084,0.925995,-0.167343,0.790739,0.184491,0.559188,-0.24943,-0.071366,0.164804,-0.00471542,0.0188982,0.0642576,-0.016659,0.384606,0.168337
1413393245105760512,-0.961176,3.10488,0.933193,-0.164184,0.793181,0.18638,0.55603,-0.24767,-0.0736338,0.109371,-0.00471493,0.018915,0.0642786,-0.0163269,0.384197,0.166986
1413393245155760384,-0.973149,3.101,0.937687,-0.162064,0.796148,0.186916,0.552219,-0.235644,-0.0824568,0.0600503,-0.00470733,0.018901,0.0643078,-0.0166146,0.386126,0.163718
1413393245205760512,-0.98474,3.09663,0.939012,-0.15969,0.799066,0.187755,0.548399,-0.228878,-0.0866774,0.0165369,-0.00469895,0.0189178,0.0643303,-0.0169135,0.387388,0.161874
1413393245255760384,-0.996156,3.09229,0.938224,-0.157157,0.800205,0.189073,0.547015,-0.221609,-0.091848,-0.038033,-0.00469618,0.018923,0.0643385,-0.0157447,0.385314,0.15919
1413393245305760512,-1.00681,3.08801,0.934468,-0.154898,0.800868,0.190157,0.546313,-0.208529,-0.0814477,-0.0944942,-0.00469948,0.0189356,0.0643708,-0.0148254,0.383823,0.158666
1413393245355760384,-1.017,3.08409,0.927184,-0.152468,0.800213,0.19166,0.547431,-0.199962,-0.0705131,-0.134745,-0.00469443,0.018953,0.0643842,-0.0145883,0.381365,0.157035
1413393245405760512,-1.02698,3.08068,0.919585,-0.150675,0.79927,0.192422,0.549034,-0.178091,-0.0696926,-0.166907,-0.00469154,0.0189545,0.0644214,-0.0134167,0.38013,0.156325
1413393245455760384,-1.03589,3.07766,0.910719,-0.148449,0.797757,0.193572,0.551431,-0.179097,-0.0641752,-0.207527,-0.0046934,0.0189677,0.0644542,-0.0124742,0.378817,0.155268
1413393245505760512,-1.04464,3.07449,0.900456,-0.146744,0.796245,0.194522,0.553734,-0.174565,-0.0527975,-0.232287,-0.00468701,0.0189732,0.0644771,-0.0118517,0.379228,0.155116
1413393245555760384,-1.05265,3.07166,0.885538,-0.145069,0.794441,0.195108,0.556553,-0.16622,-0.0519059,-0.226953,-0.00469517,0.018974,0.0644826,-0.00888696,0.380513,0.160888
1413393245605760512,-1.05804,3.06735,0.845519,-0.144008,0.794256,0.195601,0.556919,-0.172725,-0.0385715,-0.223826,-0.00476281,0.0190243,0.0643735,0.0104418,0.399668,0.209942
1413393245655760384,-1.08557,3.07201,0.923765,-0.139672,0.784467,0.194723,0.572002,-0.17748,-0.0237531,-0.22075,-0.00443305,0.0186945,0.0650426,-0.0834057,0.304944,-0.0511172
1413393245705760512,-1.06911,3.06651,0.893122,-0.137448,0.793243,0.195658,0.559993,-0.17912,-0.0144317,-0.194498,-0.00467299,0.0191458,0.0643449,0.0259639,0.379753,0.250924
1413393245755760384,-1.0783,3.06674,0.885147,-0.135132,0.793988,0.195319,0.559619,-0.190453,-0.00303775,-0.183805,-0.00467724,0.0191652,0.0643573,0.0276794,0.374912,0.258231
1413393245805760512,-1.0877,3.06742,0.877147,-0.133786,0.795053,0.194015,0.558884,-0.198779,0.0104918,-0.167646,-0.00468664,0.019198,0.0643748,0.0278081,0.369774,0.262708
