#timestamp, p_RS_R_x [m], p_RS_R_y [m], p_RS_R_z [m], q_RS_w [], q_RS_x [], q_RS_y [], q_RS_z [], v_RS_R_x [m s^-1], v_RS_R_y [m s^-1], v_RS_R_z [m s^-1], b_w_RS_S_x [rad s^-1], b_w_RS_S_y [rad s^-1], b_w_RS_S_z [rad s^-1], b_a_RS_S_x [m s^-2], b_a_RS_S_y [m s^-2], b_a_RS_S_z [m s^-2]
1413393886005760512,-0.995221,0.456978,1.34296,0.588983,0.0411161,-0.806295,0.0360045,0.0029895,0.00111444,0.00606096,-0.000847342,0.0215944,0.0683623,-0.000384555,0.000378296,0.000187165
1413393886055760384,-1.0015,0.478922,1.32759,0.588622,0.0233628,-0.807751,0.0227286,0.00814956,-0.00506118,-0.0388769,-0.000135315,0.000222363,0.00323213,-3.04565e-05,9.11738e-06,-1.81324e-05
1413393886105760512,-1.00296,0.470152,1.33193,0.589254,0.0345121,-0.806622,0.0308239,0.00111143,-0.00399699,-0.0245419,-0.000150832,0.000856625,0.00436762,-5.1936e-05,0.000104802,-8.23109e-05
1413393886155760384,-1.00393,0.469855,1.33474,0.589111,0.0365249,-0.806631,0.0309739,0.00129575,-0.000244882,-0.010713,-0.000125009,0.00125825,0.00546138,-7.82087e-05,0.000191122,-0.000168341
1413393886205760512,-1.00062,0.478003,1.32159,0.589638,0.0228084,-0.807018,0.0230069,0.00486245,-0.00237068,-0.0398681,-0.000135341,0.000222394,0.00323268,-6.43833e-05,2.11276e-05,-6.35801e-05
1413393886255760384,-1.00424,0.469921,1.33603,0.589206,0.0373399,-0.806516,0.0311961,0.000794578,0.000453878,-0.010164,-0.000104889,0.00160787,0.00650802,1.68188e-05,0.000288346,-0.000401151
1413393886305760512,-1.00263,0.469418,1.32753,0.589916,0.0342535,-0.806149,0.0308076,0.00138287,0.0024153,-0.0235816,-0.00015087,0.000856797,0.00436852,-4.94851e-05,0.00022158,-0.00024327
1413393886355760384,-0.99992,0.477894,1.31526,0.590663,0.0223777,-0.806272,0.0232751,0.00850276,0.00247361,-0.0425053,-0.000135362,0.000222407,0.00323299,-6.48684e-05,1.51186e-05,-0.000122442
1413393886405760512,-1.00437,0.46945,1.33599,0.589332,0.0373755,-0.806396,0.0318724,0.000864803,-0.00290758,-0.0078157,-0.000135891,0.00190159,0.00749277,-0.000261146,0.000208332,-0.000811786
1413393886455760384,-1.00352,0.469201,1.33039,0.589841,0.036295,-0.806102,0.0311499,0.000849297,-0.00135222,-0.0165889,-0.000125043,0.00125859,0.00546287,1.63329e-05,0.000337883,-0.000540383
1413393886505760512,-1.00174,0.469598,1.32246,0.590683,0.0338419,-0.805588,0.031233,0.00672808,0.0049829,-0.0246498,-0.000150899,0.000856892,0.00436897,4.28898e-06,0.000251917,-0.000349303
1413393886555760384,-1.00446,0.469163,1.33634,0.58928,0.0375416,-0.806413,0.0322023,0.000852681,-0.00086517,-0.00603251,-0.000174303,0.00218773,0.00844893,-0.000607588,-4.63823e-06,-0.00153077
1413393886605760512,-1.00402,0.468978,1.332,0.589749,0.0368557,-0.806133,0.0314176,-0.00123391,-0.00518526,-0.0164136,-0.000104907,0.00160831,0.00650984,0.000413773,0.000315519,-0.00110416
1413393886655760384,-1.00309,0.46875,1.32671,0.590291,0.0357456,-0.805783,0.0314941,0.00474399,-0.0015927,-0.0217503,-0.000125058,0.0012587,0.00546333,0.000116386,0.000376768,-0.000623822
1413393886705760512,-1.00482,0.468875,1.33634,0.589241,0.0377281,-0.806427,0.0323478,1.30224e-05,-0.00306933,-0.0058438,-0.000205105,0.0024452,0.00933437,-0.00131732,-0.0001402,-0.0022301
1413393886755760384,-1.00433,0.468667,1.33256,0.589731,0.0370334,-0.806112,0.0320859,-0.000710266,0.000982671,-0.0131763,-0.000135921,0.00190202,0.00749456,0.000120741,-0.00013919,-0.00199393
1413393886805760512,-1.00365,0.46823,1.32871,0.590146,0.0365097,-0.805848,0.031672,0.0046022,-0.00160434,-0.0166953,-0.000104913,0.00160842,0.00651031,0.00057701,0.000311793,-0.00126118
1413393886855760384,-1.00526,0.468944,1.33692,0.589215,0.0379481,-0.806428,0.0325293,0.00074745,-0.00115794,-0.00436604,-0.000203148,0.00271231,0.0102643,-0.0028122,-0.000172839,-0.00257718
1413393886905760512,-1.00444,0.468905,1.33319,0.589622,0.0372394,-0.806167,0.0324519,0.00353346,0.00109298,-0.0112492,-0.000174346,0.00218815,0.00845069,-0.000192222,-0.00046996,-0.00309644
1413393886955760384,-1.00363,0.46879,1.32978,0.59006,0.036724,-0.805873,0.0323818,0.00666932,0.000749274,-0.0175547,-0.000135931,0.00190212,0.00749501,0.000249849,-0.000258996,-0.00229634
1413393887005760512,-1.00529,0.46893,1.33703,0.589199,0.0382347,-0.806416,0.0327981,0.00148539,-0.00144773,-0.00570473,-0.000231056,0.00298633,0.0110967,-0.00444844,-0.00017817,-0.00273999
1413393887055760384,-1.00445,0.468918,1.33337,0.589649,0.037405,-0.80613,0.0326795,0.00343287,0.00218291,-0.0132212,-0.000205158,0.00244559,0.00933608,-0.000913747,-0.000442971,-0.00352806
1413393887105760512,-1.00351,0.46938,1.33022,0.590003,0.036898,-0.805892,0.0327569,0.00693803,0.0054962,-0.0182341,-0.000174364,0.00218825,0.00845114,-5.63871e-05,-0.000559052,-0.00335388
1413393887155760384,-1.00527,0.468757,1.33682,0.589211,0.0382375,-0.806405,0.0328529,0.00126519,-0.00133973,-0.00564059,-0.000260708,0.0032487,0.0119184,-0.00655193,-9.11023e-05,-0.00271868
1413393887205760512,-1.00453,0.468738,1.33376,0.589674,0.0376028,-0.806096,0.0328494,0.00382231,-0.00255903,-0.0136799,-0.000203196,0.0027127,0.010266,-0.00252026,-0.000399994,-0.00342144
1413393887255760384,-1.00354,0.469277,1.3302,0.590089,0.0371031,-0.805808,0.033048,0.0045038,0.000119796,-0.0188989,-0.000205182,0.00244569,0.00933651,-0.000782002,-0.000478522,-0.00365961
1413393887305760512,-1.00538,0.468703,1.33694,0.589147,0.0384562,-0.806432,0.033068,-0.000912007,-0.00123311,-0.00521282,-0.000259042,0.00353215,0.0128775,-0.00684813,-7.34471e-05,-0.00385922
1413393887355760384,-1.00472,0.468603,1.33393,0.589681,0.0378125,-0.806073,0.0330413,0.00126252,0.00260181,-0.0104176,-0.000231117,0.00298672,0.0110984,-0.00418668,-0.000331596,-0.00343552
1413393887405760512,-1.00391,0.468914,1.33079,0.590062,0.0372596,-0.80582,0.0330302,0.00452696,0.00441624,-0.0172279,-0.000203217,0.00271279,0.0102664,-0.00241558,-0.000431999,-0.0035274
1413393887455760384,-1.00559,0.468624,1.33674,0.589189,0.038319,-0.806405,0.0331312,0.000102402,-0.0020477,-0.00261528,-0.000312832,0.00377635,0.0137337,-0.00713322,-0.00104855,-0.00438966
1413393887505760512,-1.00499,0.468402,1.33418,0.589555,0.0380232,-0.806153,0.0331055,0.00217159,-0.00327126,-0.00834584,-0.000260779,0.00324908,0.01192,-0.00635643,-0.000137644,-0.00345174
1413393887555760384,-1.00403,0.468901,1.3315,0.59008,0.0375994,-0.805774,0.0334632,0.00601397,0.00373886,-0.0130754,-0.000231142,0.00298681,0.0110988,-0.00408033,-0.000346587,-0.00355586
1413393887605760512,-1.00557,0.468761,1.33678,0.58939,0.0383765,-0.806255,0.0331394,0.00308138,0.00344598,0.00585849,-0.000358015,0.0040144,0.0145563,-0.00768318,-0.000999111,-0.00410537
1413393887655760384,-1.00519,0.468449,1.33519,0.59005,0.0376981,-0.80579,0.033505,0.00357243,-0.00367244,-0.00904023,-0.000259108,0.00353255,0.0128791,-0.00622497,-0.000168255,-0.00496053
1413393887705760512,-1.00398,0.468761,1.33243,0.590242,0.0372776,-0.80566,0.0337063,0.00604997,0.00276374,-0.0122897,-0.000260809,0.00324917,0.0119204,-0.00626094,-0.00014014,-0.00355094
1413393887755760384,-1.00548,0.468859,1.33703,0.589677,0.0381899,-0.806038,0.033522,0.00071794,-0.000381112,-0.0083445,-0.000378038,0.00428048,0.015368,-0.00836075,0.00164322,-0.00392677
1413393887805760512,-1.00507,0.468856,1.3346,0.589877,0.037858,-0.805908,0.0335315,0.00277562,0.001309,-0.0128276,-0.000312918,0.00377675,0.0137353,-0.00627145,-0.00148692,-0.00536604
1413393887855760384,-1.0045,0.468508,1.33253,0.590272,0.037491,-0.805626,0.033755,0.005464,0.0029929,-0.0197415,-0.000259134,0.00353264,0.0128795,-0.0060477,-0.000177354,-0.00510404
1413393887905760512,-1.00564,0.468801,1.33665,0.58932,0.0385517,-0.806295,0.03322,0.000844834,-0.000515822,-0.00517588,-0.000338618,0.00452326,0.0160916,-0.00912411,0.00504676,-0.003815
1413393887955760384,-1.00476,0.46936,1.33396,0.589861,0.0378686,-0.805905,0.0338703,0.00411037,0.00414828,-0.0151668,-0.000358114,0.00401479,0.0145579,-0.00680749,-0.00104804,-0.00461693
1413393888005760512,-1.00421,0.469807,1.33165,0.590171,0.0377134,-0.805682,0.0339579,0.00388185,0.00658895,-0.0153593,-0.000312951,0.00377685,0.0137358,-0.00607299,-0.00156097,-0.00551351
1413393888055760384,-1.00588,0.468585,1.33642,0.589248,0.0385971,-0.806345,0.03324,-0.0018831,-0.00183425,-0.0050003,-0.000304572,0.00473729,0.0167501,-0.0109363,0.00758792,-0.00330975
1413393888105760512,-1.00495,0.4693,1.33369,0.589616,0.0382442,-0.806077,0.0336022,0.00319145,0.00329308,-0.00982141,-0.00037814,0.00428089,0.0153696,-0.00752788,0.00287615,-0.0041878
1413393888155760384,-1.00396,0.471013,1.33138,0.590177,0.0378492,-0.805666,0.0340776,0.00574988,0.0113312,-0.0120202,-0.000358151,0.00401489,0.0145583,-0.00662091,-0.000982298,-0.00466316
1413393888205760512,-1.00604,0.468629,1.33636,0.589187,0.0387702,-0.80638,0.0332621,-0.00185626,-0.00493118,-0.00381007,-0.000269643,0.00496742,0.0175166,-0.0114821,0.00928017,-0.00317539
1413393888255760384,-1.00546,0.468517,1.3342,0.589582,0.0383093,-0.806107,0.0334192,0.00310888,-0.00236563,-0.00521807,-0.000338691,0.00452366,0.0160931,-0.00839638,0.0068211,-0.00405037
1413393888305760512,-1.00416,0.470321,1.33181,0.589952,0.0380361,-0.805831,0.033852,0.00638563,0.00856989,-0.0104328,-0.000378183,0.00428099,0.01537,-0.00735074,0.00312628,-0.00422493
1413393888355760384,-1.00607,0.467992,1.33681,0.589214,0.0386113,-0.806367,0.0332985,-0.000395749,-0.0075992,0.00199071,-0.000257891,0.00522312,0.0182034,-0.0132115,0.00979015,-0.00167214
1413393888405760512,-1.00572,0.467576,1.33523,0.589658,0.0382576,-0.80606,0.0332749,0.00181926,-0.00466348,-0.00502686,-0.00030462,0.00473768,0.0167516,-0.0106006,0.00888846,-0.00351146
1413393888455760384,-1.0048,0.468664,1.33304,0.589758,0.0381003,-0.805976,0.0337103,0.00293273,-0.000566267,-0.00627434,-0.00033872,0.00452376,0.0160935,-0.00824979,0.00701024,-0.00409883
1413393888505760512,-1.0062,0.467527,1.33775,0.589007,0.0386538,-0.806519,0.0332196,0.000451605,-0.00523467,0.00397478,-0.000240419,0.00548138,0.018898,-0.0167807,0.00964209,0.000799853
1413393888555760384,-1.00588,0.467137,1.33615,0.589559,0.0383691,-0.806121,0.0334289,0.00199555,-0.00703648,-0.0093344,-0.00026966,0.0049678,0.0175181,-0.0110721,0.00998187,-0.0034461
1413393888605760512,-1.00522,0.467321,1.33436,0.589835,0.0380004,-0.805922,0.0337622,0.000297815,-0.00445179,-0.003073,-0.000304635,0.00473776,0.0167519,-0.0105472,0.00895936,-0.00353409
1413393888655760384,-1.00642,0.467086,1.33926,0.589206,0.0383603,-0.806373,0.0335614,-0.00466826,-0.00465693,0.00899809,-0.00025846,0.0057839,0.0194936,-0.0205019,0.00903961,0.00332065
1413393888705760512,-1.00652,0.466445,1.3371,0.589566,0.0380612,-0.806122,0.0336313,-0.00491654,-0.00787502,-0.00381534,-0.000257895,0.00522351,0.0182048,-0.0128804,0.0102297,-0.00150516
1413393888755760384,-1.00646,0.46616,1.33534,0.590106,0.0375496,-0.805735,0.0340074,-0.00484162,-0.00673202,-0.00775889,-0.000269667,0.00496788,0.0175184,-0.0109483,0.0100267,-0.00348517
1413393888805760512,-1.00706,0.467019,1.34107,0.589346,0.0382695,-0.806273,0.0336099,-0.00477488,-0.00694479,-0.00201999,-0.000233912,0.00605143,0.0201894,-0.0212829,0.00992852,0.00546914
1413393888855760384,-1.00738,0.465588,1.33852,0.589528,0.0378443,-0.806153,0.0337776,-0.00376589,-0.00489242,-0.00145764,-0.000240412,0.00548179,0.0188994,-0.0167712,0.00998266,0.00127456
1413393888905760512,-1.00732,0.465303,1.33582,0.590004,0.0375496,-0.805812,0.0339274,-0.00299482,-0.00169717,-0.00631991,-0.000257901,0.00522361,0.0182052,-0.0127677,0.0102896,-0.00147028
1413393888955760384,-1.00759,0.466634,1.3424,0.589238,0.0381614,-0.806354,0.0336899,-0.00341141,-0.00999736,0.0121496,-0.000251468,0.00626963,0.0207705,-0.0179746,0.00951685,0.00813627
1413393889005760512,-1.00796,0.464954,1.34109,0.589968,0.0378029,-0.805832,0.0338051,-0.00551791,-0.00354485,0.0060126,-0.000258466,0.00578435,0.0194949,-0.0206573,0.00925434,0.00367119
1413393889055760384,-1.00802,0.46425,1.33844,0.590322,0.037566,-0.805586,0.0337596,-0.00520864,-0.00679849,-0.00259642,-0.000240412,0.00548189,0.0188997,-0.0167162,0.0100077,0.00129695
1413393889105760512,-1.00824,0.465542,1.3439,0.589602,0.0377841,-0.806098,0.0338629,-0.00824536,-0.00807318,0.0121363,-0.000324427,0.00636191,0.0212352,-0.0153448,0.00962998,0.0116436
1413393889155760384,-1.00913,0.464234,1.34376,0.58992,0.0374731,-0.805883,0.0337989,-0.00665941,-0.00617242,0.00458692,-0.000233908,0.0060519,0.0201907,-0.020896,0.0102988,0.00579763
1413393889205760512,-1.00947,0.463738,1.34219,0.590165,0.0370647,-0.805704,0.0342325,-0.00798444,-0.00267481,-0.00209124,-0.000258477,0.00578447,0.0194953,-0.0206059,0.00925299,0.00366057
1413393889255760384,-1.00904,0.465571,1.34612,0.59017,0.0373988,-0.80568,0.034361,-0.00704873,-0.00418007,0.0110183,-0.000366163,0.0064981,0.0220128,-0.0135831,0.00850966,0.0174275
1413393889305760512,-1.01029,0.464302,1.34525,0.589649,0.0373644,-0.806057,0.0345015,-0.0128745,-0.00281286,-0.0102849,-0.00025148,0.00627009,0.0207718,-0.0165862,0.00977083,0.00874626
1413393889355760384,-1.01147,0.463472,1.34453,0.588345,0.0368791,-0.807033,0.0344587,-0.0077838,0.00118773,-0.00689481,-0.000233913,0.00605202,0.0201911,-0.0207251,0.0103565,0.00583318
1413393889405760512,-1.00969,0.466303,1.34609,0.586974,0.0371082,-0.808011,0.0346657,0.00623832,0.00491477,-0.00575718,-0.000467637,0.00664901,0.0224113,-0.0130142,0.00890986,0.0212361
1413393889455760384,-1.01029,0.46503,1.34443,0.586214,0.0364488,-0.808612,0.0342281,0.00576863,0.00164709,-0.0181053,-0.00032449,0.00636229,0.0212364,-0.0138915,0.0101498,0.0126132
1413393889505760512,-1.01082,0.46466,1.34349,0.58426,0.0355244,-0.810049,0.0346324,0.00693552,0.00199493,-0.00550797,-0.00025149,0.00627021,0.0207721,-0.0163298,0.00982417,0.00884569
1413393889555760384,-1.00781,0.468658,1.34571,0.578831,0.0363288,-0.813933,0.0338676,0.00935084,0.0203274,0.00475706,-0.000560337,0.00693707,0.0231438,-0.0145935,0.00754279,0.0251242
1413393889605760512,-1.0077,0.468039,1.34422,0.574077,0.0353498,-0.817384,0.0327035,0.0230669,0.0248009,0.0205587,-0.000366241,0.00649843,0.0220141,-0.0127278,0.00900984,0.0190233
1413393889655760384,-1.00864,0.467871,1.34548,0.568653,0.0350387,-0.821281,0.0300615,0.00406922,0.0360401,0.064251,-0.000324527,0.00636236,0.0212366,-0.0137453,0.0102607,0.0127228
1413393889705760512,-1.00594,0.473516,1.3536,0.56517,0.0382974,-0.823677,0.0258975,0.00701677,0.0385654,0.121105,-0.00053319,0.00714319,0.0238459,-0.0111301,0.00988983,0.0283248
1413393889755760384,-1.00618,0.473987,1.35986,0.56088,0.0396125,-0.826676,0.0212418,-0.0123629,0.0365907,0.214896,-0.000467773,0.00664931,0.0224125,-0.0127369,0.00950918,0.0226166
1413393889805760512,-1.00803,0.475341,1.37123,0.558859,0.0408219,-0.82807,0.017596,-0.0380878,0.0374765,0.292557,-0.000366271,0.00649849,0.0220145,-0.0127082,0.00906395,0.0192555
1413393889855760384,-1.00922,0.478767,1.39125,0.556452,0.0461189,-0.829516,0.011685,-0.061647,0.0110566,0.380783,-0.000477851,0.00723837,0.0244889,-0.00885369,0.0120758,0.0301364
1413393889905760512,-1.01299,0.479335,1.41261,0.556266,0.0498912,-0.829488,0.00529133,-0.0901535,2.19635e-05,0.480522,-0.000560502,0.00693745,0.0231451,-0.0147089,0.00793785,0.026146
1413393889955760384,-1.01903,0.476401,1.43629,0.559875,0.0530057,-0.826879,-0.000866078,-0.126076,-0.0372177,0.550509,-0.000467833,0.00664937,0.0224128,-0.0127319,0.0095843,0.022694
1413393890005760512,-1.0243,0.474192,1.46536,0.564294,0.059105,-0.82343,-0.00644241,-0.14281,-0.0903225,0.60955,-0.000436782,0.00741045,0.0250598,-0.00332559,0.0136932,0.0301096
1413393890055760384,-1.03223,0.469696,1.49847,0.568996,0.0583607,-0.820241,-0.00641444,-0.16164,-0.121768,0.633335,-0.000533319,0.00714361,0.0238472,-0.0107471,0.0107297,0.0292982
1413393890105760512,-1.04146,0.463736,1.53135,0.572627,0.0542173,-0.818019,-0.00181084,-0.172658,-0.159716,0.642573,-0.000560559,0.00693755,0.0231454,-0.0147229,0.00801779,0.0262304
1413393890155760384,-1.04779,0.45245,1.55743,0.576595,0.0529453,-0.815311,0.00152952,-0.162983,-0.196153,0.563695,-0.000440722,0.00753106,0.025606,0.000603603,0.0141841,0.0311124
1413393890205760512,-1.05695,0.442323,1.5873,0.578699,0.0488744,-0.814051,0.00628772,-0.172999,-0.219868,0.472826,-0.000477903,0.00723874,0.0244902,-0.00828524,0.0130792,0.0309718
1413393890255760384,-1.06614,0.432032,1.60909,0.581152,0.0446151,-0.812499,0.0108155,-0.182128,-0.232917,0.387071,-0.000533339,0.00714373,0.0238475,-0.0106294,0.0108752,0.0294356
1413393890305760512,-1.07363,0.41738,1.62042,0.582682,0.0427928,-0.811458,0.0136016,-0.175962,-0.250516,0.270241,-0.000421927,0.00769528,0.0261769,0.000362723,0.0154514,0.0322567
1413393890355760384,-1.08233,0.404988,1.63245,0.582948,0.0401176,-0.811346,0.0166873,-0.174904,-0.258559,0.165192,-0.000436777,0.00741085,0.0250611,-0.00234932,0.0144871,0.0309574
1413393890405760512,-1.09268,0.392944,1.64277,0.582855,0.0380016,-0.811455,0.0193992,-0.17938,-0.262346,0.073992,-0.000477899,0.00723881,0.0244905,-0.00817489,0.0131955,0.0310848
1413393890455760384,-1.10011,0.377407,1.63871,0.586034,0.036052,-0.809202,0.0213611,-0.176305,-0.272793,-0.00993071,-0.000401394,0.00783145,0.026676,0.000237217,0.0163575,0.0329126
1413393890505760512,-1.10813,0.364843,1.63686,0.592585,0.0338452,-0.804418,0.0246658,-0.173409,-0.281402,-0.0161438,-0.000440703,0.00753147,0.0256073,0.00169854,0.0147756,0.0320503
1413393890555760384,-1.11733,0.351248,1.63882,0.601253,0.0317742,-0.797948,0.0276465,-0.165673,-0.268127,0.00659172,-0.000436767,0.00741099,0.0250614,-0.0021549,0.0145909,0.0311473
1413393890605760512,-1.12474,0.33636,1.64,0.608494,0.0316403,-0.792459,0.0272523,-0.133233,-0.261637,0.0190366,-0.000467329,0.00799512,0.0271133,-0.00459183,0.0159115,0.0344656
1413393890655760384,-1.13013,0.323484,1.6378,0.610146,0.0321048,-0.791199,0.0263521,-0.0949758,-0.261429,0.000490958,-0.000421918,0.00769571,0.0261783,0.000977167,0.0160797,0.0331047
1413393890705760512,-1.13341,0.312285,1.63744,0.606897,0.032866,-0.793696,0.0253477,-0.0624043,-0.250871,0.00798969,-0.000440706,0.00753161,0.0256076,0.00187146,0.0148361,0.0321795
1413393890755760384,-1.13716,0.297808,1.64365,0.601379,0.034354,-0.797891,0.0230994,-0.0379447,-0.258324,0.0377143,-0.000523125,0.00804038,0.0274014,-0.00790634,0.0159475,0.0346109
1413393890805760512,-1.13823,0.284091,1.64166,0.596581,0.034715,-0.8015,0.0219989,-0.0124575,-0.25651,0.0491195,-0.000401394,0.00783186,0.0266772,0.000544325,0.0168387,0.0332224
1413393890855760384,-1.13794,0.272566,1.64375,0.592343,0.0351976,-0.804647,0.0208123,0.00647395,-0.246267,0.0693454,-0.000421926,0.00769581,0.0261786,0.00102439,0.0161776,0.0331901
1413393890905760512,-1.13877,0.260136,1.65481,0.588329,0.0357208,-0.807578,0.0202436,0.00349136,-0.259147,0.103861,-0.000497446,0.00800648,0.0275391,-0.0112056,0.0148525,0.0349696
1413393890955760384,-1.13822,0.246166,1.65761,0.586423,0.036372,-0.808965,0.0189938,0.0133116,-0.259581,0.115949,-0.00046738,0.00799545,0.0271145,-0.00518804,0.0158505,0.0342949
1413393891005760512,-1.13691,0.232293,1.65991,0.585227,0.0363728,-0.809845,0.0183428,0.0180398,-0.266959,0.126025,-0.000401401,0.00783194,0.0266776,0.000602525,0.0168622,0.0332013
1413393891055760384,-1.13764,0.220778,1.67558,0.582882,0.0379776,-0.81148,0.0174608,0.00668072,-0.277793,0.161182,-0.000585845,0.008092,0.0280569,-0.0122713,0.0145059,0.0343758
1413393891105760512,-1.13736,0.20553,1.68207,0.583508,0.0376605,-0.811041,0.0176492,0.00578169,-0.278453,0.184568,-0.000523214,0.00804057,0.0274024,-0.00869803,0.01568,0.0338485
1413393891155760384,-1.13579,0.191495,1.68779,0.583463,0.0371233,-0.811073,0.0187852,0.0155805,-0.284691,0.184027,-0.000467404,0.0079955,0.0271148,-0.00530888,0.0157611,0.0341305
1413393891205760512,-1.13693,0.178514,1.70359,0.583166,0.0375476,-0.811258,0.0191784,0.00371334,-0.28554,0.169707,-0.000684127,0.00822456,0.0285073,-0.0125202,0.0155427,0.0329684
1413393891255760384,-1.1354,0.164174,1.70744,0.585244,0.0369274,-0.809759,0.0203962,0.0205999,-0.284471,0.0722415,-0.000497499,0.0080065,0.0275399,-0.01192,0.0143563,0.0343855
1413393891305760512,-1.13439,0.148292,1.7079,0.592293,0.0367732,-0.804604,0.0211929,0.0241085,-0.29097,0.0212153,-0.000523258,0.00804055,0.0274026,-0.00876979,0.0156402,0.0337325
1413393891355760384,-1.13505,0.134509,1.71395,0.608612,0.0369771,-0.792269,0.0230883,0.0289321,-0.291567,-0.0202243,-0.000809488,0.00837833,0.028809,-0.0123699,0.0170665,0.0315636
1413393891405760512,-1.13105,0.121541,1.70845,0.632431,0.035047,-0.773357,0.0268623,0.0908704,-0.281161,-0.0883052,-0.000585932,0.00809198,0.0280577,-0.0125551,0.0143512,0.0339157
1413393891455760384,-1.12394,0.107346,1.70198,0.65591,0.0328527,-0.753468,0.0314388,0.178824,-0.283142,-0.12246,-0.000497485,0.00800645,0.02754,-0.0119668,0.0143101,0.0343792
1413393891505760512,-1.11616,0.0908594,1.70104,0.67304,0.0323213,-0.738162,0.0329973,0.271031,-0.264713,-0.131369,-0.000914072,0.00830018,0.0290939,-0.0137337,0.0187651,0.0305913
1413393891555760384,-1.09791,0.0798127,1.69087,0.683941,0.0300835,-0.727983,0.0368825,0.393853,-0.253988,-0.133768,-0.000684268,0.0082246,0.0285081,-0.012566,0.0158771,0.0325002
1413393891605760512,-1.07227,0.070103,1.68253,0.688345,0.0310039,-0.723864,0.0352192,0.537349,-0.216678,-0.132301,-0.000585953,0.00809198,0.0280579,-0.0125618,0.014374,0.0338856
1413393891655760384,-1.04687,0.0519189,1.68212,0.687661,0.03291,-0.724505,0.0336516,0.67703,-0.218658,-0.101608,-0.000971561,0.00841538,0.0296036,-0.012928,0.0219911,0.0295561
1413393891705760512,-1.00736,0.0452947,1.67461,0.688206,0.0325932,-0.723979,0.0341191,0.816282,-0.19549,-0.0805016,-0.000809741,0.00837846,0.0288098,-0.0122579,0.0176256,0.0308601
1413393891755760384,-0.961092,0.0390388,1.66924,0.687872,0.0325761,-0.724261,0.0348716,0.960742,-0.164439,-0.0444278,-0.000684347,0.00822462,0.0285084,-0.0125695,0.0159565,0.0324283
1413393891805760512,-0.918531,0.0166759,1.67575,0.68445,0.0350218,-0.727568,0.0307697,1.06685,-0.182645,0.0193462,-0.000794118,0.00865861,0.0303888,-0.0143882,0.0274764,0.0276412
1413393891855760384,-0.857489,0.0181834,1.6721,0.681136,0.034023,-0.730654,0.0322612,1.20913,-0.144054,0.0405264,-0.00091443,0.00830017,0.0290946,-0.0138283,0.0193797,0.0299713
1413393891905760512,-0.792045,0.0144206,1.6712,0.672436,0.0333265,-0.738691,0.0324579,1.33919,-0.11382,0.0435191,-0.000809862,0.00837849,0.02881,-0.0122345,0.0177203,0.0307506
1413393891955760384,-0.732932,-0.0109257,1.68385,0.655666,0.0352891,-0.75372,0.0276138,1.4101,-0.164041,0.0303273,-0.000704317,0.00901653,0.0310054,-0.0171147,0.0301576,0.0254558
1413393892005760512,-0.653158,-0.00633613,1.67811,0.638426,0.0339352,-0.768374,0.0293533,1.50758,-0.117586,0.0597368,-0.000971961,0.00841535,0.0296044,-0.0129163,0.0229019,0.0289984
1413393892055760384,-0.572863,-0.00450804,1.68034,0.621219,0.0340093,-0.782333,0.029747,1.57638,-0.0928738,0.0772292,-0.000914556,0.00830009,0.0290947,-0.0138968,0.0194628,0.0299214
1413393892105760512,-0.50695,-0.0352939,1.69892,0.604572,0.0357276,-0.795403,0.0234461,1.56835,-0.154327,0.135756,-0.000706506,0.00927437,0.0314933,-0.0198168,0.0324201,0.0254883
1413393892155760384,-0.422558,-0.0372482,1.69817,0.595175,0.0343924,-0.802508,0.02376,1.59749,-0.133124,0.160813,-0.000794411,0.00865863,0.0303898,-0.014505,0.028841,0.0267582
1413393892205760512,-0.335671,-0.0275427,1.70085,0.588908,0.0338301,-0.807075,0.0259121,1.60931,-0.101227,0.138497,-0.000972099,0.00841532,0.0296045,-0.0129131,0.0230565,0.0289312
1413393892255760384,-0.271386,-0.0590328,1.72334,0.581597,0.0363054,-0.812464,0.018155,1.55833,-0.167661,0.128753,-0.000832657,0.00931386,0.0317856,-0.0207013,0.0344621,0.0257784
1413393892305760512,-0.191708,-0.0652128,1.72434,0.580158,0.0342794,-0.813559,0.0190505,1.53589,-0.162826,0.0740392,-0.000704543,0.00901672,0.0310066,-0.0172365,0.0315554,0.0243954
1413393892355760384,-0.107414,-0.0651803,1.71988,0.578287,0.0332618,-0.814911,0.0199322,1.53502,-0.141802,0.0137696,-0.000794516,0.00865866,0.0303901,-0.0145301,0.0291033,0.0266222
1413393892405760512,-0.0450957,-0.0829941,1.74696,0.571349,0.035926,-0.819785,0.0148978,1.47227,-0.188497,-0.00679611,-0.000708482,0.00977415,0.032532,-0.0344486,0.0377709,0.0254542
1413393892455760384,0.0309974,-0.0939385,1.72852,0.571166,0.0332371,-0.820012,0.0156165,1.45293,-0.178622,-0.0635967,-0.000706722,0.0092747,0.0314944,-0.0200719,0.0340345,0.0248442
1413393892505760512,0.106342,-0.0983634,1.71931,0.570805,0.0328935,-0.820283,0.015323,1.4387,-0.175079,-0.134243,-0.000704622,0.0090168,0.0310069,-0.0172441,0.0317966,0.0242603
1413393892555760384,0.168825,-0.109957,1.74232,0.564887,0.0347724,-0.824344,0.0122354,1.37856,-0.213359,-0.149674,-0.000698319,0.0100811,0.0330191,-0.044416,0.0391558,0.0282905
1413393892605760512,0.242364,-0.124087,1.70755,0.564064,0.0321046,-0.825004,0.0129627,1.38393,-0.213039,-0.220943,-0.000832943,0.00931412,0.0317866,-0.0209183,0.0363145,0.0255269
1413393892655760384,0.312114,-0.132844,1.69366,0.55834,0.0316507,-0.82891,0.0127105,1.33867,-0.205149,-0.238089,-0.000706794,0.00927481,0.0314947,-0.0201033,0.0343152,0.0247974
1413393892705760512,0.368682,-0.141837,1.71462,0.545575,0.0345606,-0.837304,0.00861456,1.25921,-0.241378,-0.204106,-0.000738153,0.0102922,0.0334019,-0.0468121,0.0407393,0.0275895
1413393892755760384,0.430395,-0.159212,1.69257,0.535181,0.0335269,-0.844034,0.00798964,1.2168,-0.259003,-0.220746,-0.00070862,0.00977444,0.032533,-0.0366665,0.0406143,0.0232898
1413393892805760512,0.500395,-0.169134,1.6593,0.525406,0.0329175,-0.850171,0.00858415,1.17053,-0.247086,-0.220104,-0.000833057,0.00931415,0.0317867,-0.0209263,0.0365571,0.0255065
1413393892855760384,0.542832,-0.181689,1.68574,0.510969,0.0352678,-0.858859,0.00532156,1.03239,-0.286985,-0.160078,-0.000763256,0.0104142,0.0338276,-0.0482107,0.0418289,0.0272284
1413393892905760512,0.591003,-0.199333,1.67665,0.500581,0.0349082,-0.864969,0.00529975,0.922124,-0.32109,-0.127888,-0.000698408,0.0100814,0.0330202,-0.0475259,0.0411219,0.0260018
1413393892955760384,0.63704,-0.217575,1.65812,-0.492729,-0.0349012,0.869463,-0.00578943,0.818164,-0.335627,-0.119501,-0.000708667,0.00977446,0.0325333,-0.037274,0.0411216,0.0227461
1413393893005760512,0.672716,-0.230827,1.66822,-0.484016,-0.0375202,0.874246,-0.00377568,0.682976,-0.367287,-0.0638652,-0.000766578,0.0104912,0.034238,-0.048669,0.0427921,0.0265283
1413393893055760384,0.702922,-0.250122,1.66604,-0.480286,-0.0382709,0.876266,-0.00414319,0.544328,-0.394359,-0.0284422,-0.000738241,0.0102925,0.033403,-0.0490278,0.0419691,0.0259004
1413393893105760512,0.726496,-0.272046,1.66276,-0.479231,-0.0383684,0.876836,-0.00484831,0.409651,-0.40478,-0.00818744,-0.000698428,0.0100814,0.0330205,-0.048138,0.0413093,0.0256333
1413393893155760384,0.743501,-0.293116,1.66402,-0.482042,-0.0390333,0.875262,-0.00531102,0.273381,-0.440287,0.0420826,-0.000775632,0.0105379,0.0345862,-0.0479942,0.0436106,0.0281497
1413393893205760512,0.755118,-0.313375,1.66851,-0.487358,-0.0405764,0.87224,-0.00579072,0.15304,-0.450007,0.0594101,-0.000763343,0.0104145,0.0338288,-0.0493377,0.0428407,0.026599
1413393893255760384,0.759405,-0.336311,1.6724,-0.492896,-0.0403238,0.869126,-0.00680274,0.0325301,-0.467073,0.104561,-0.000738276,0.0102926,0.0334033,-0.0491763,0.0421041,0.025802
1413393893305760512,0.758155,-0.363133,1.67572,-0.497933,-0.038009,0.866334,-0.00916416,-0.0693361,-0.495019,0.100974,-0.00078516,0.0106527,0.0349805,-0.0471119,0.044033,0.0282284
1413393893355760384,0.752978,-0.385615,1.68295,0.500591,0.0342505,-0.86489,0.0141686,-0.1748,-0.50573,0.123476,-0.000766655,0.0104915,0.0342391,-0.0489658,0.0439369,0.0265356
1413393893405760512,0.741158,-0.410619,1.69039,0.50438,0.029748,-0.862755,0.0192097,-0.275351,-0.500113,0.133051,-0.000763377,0.0104146,0.0338291,-0.0493714,0.0429723,0.0266939
1413393893455760384,0.725129,-0.439009,1.69488,0.507067,0.0257327,-0.861207,0.0233075,-0.363042,-0.509084,0.138881,-0.000778914,0.0107956,0.0353036,-0.0437042,0.0425374,0.0266823
1413393893505760512,0.704138,-0.463692,1.7027,0.508028,0.0227552,-0.86058,0.0281372,-0.451536,-0.503194,0.153458,-0.00077571,0.0105382,0.0345873,-0.0478181,0.0446318,0.0288928
1413393893555760384,0.680111,-0.48611,1.71184,0.509547,0.020759,-0.859588,0.0322266,-0.536875,-0.481906,0.155003,-0.000766676,0.0104916,0.0342394,-0.04904,0.0441702,0.0264969
1413393893605760512,0.651068,-0.513324,1.71682,0.511798,0.0183823,-0.858171,0.0355817,-0.618684,-0.476253,0.150441,-0.000733853,0.010948,0.0356104,-0.042198,0.0436051,0.0272873
1413393893655760384,0.61773,-0.536416,1.7256,0.511491,0.0159287,-0.858212,0.039943,-0.703903,-0.452387,0.151436,-0.000785226,0.010653,0.0349817,-0.0468948,0.044834,0.0283891
1413393893705760512,0.579883,-0.557606,1.73365,0.511979,0.0130303,-0.857766,0.044092,-0.792242,-0.419694,0.164681,-0.000775734,0.0105382,0.0345876,-0.047821,0.0447358,0.0290367
1413393893755760384,0.539261,-0.579172,1.74006,0.514887,0.0110291,-0.855899,0.0469618,-0.873192,-0.405664,0.1776,-0.000685764,0.0110999,0.0359334,-0.0422673,0.0468173,0.0276366
1413393893805760512,0.493301,-0.597672,1.75054,0.518403,0.00990304,-0.853698,0.0485744,-0.95148,-0.352725,0.204108,-0.000778956,0.010796,0.0353047,-0.0428121,0.0427349,0.0262986
1413393893855760384,0.443606,-0.615072,1.76261,0.525974,0.00889147,-0.84904,0.0490097,-1.02372,-0.32511,0.221903,-0.000785249,0.0106531,0.034982,-0.046872,0.0448818,0.0283267
1413393893905760512,0.392244,-0.630742,1.77119,0.534891,0.0107508,-0.843524,0.0473613,-1.07488,-0.307338,0.209426,-0.000636418,0.0112412,0.0363332,-0.0393411,0.0494396,0.0282563
1413393893955760384,0.336364,-0.64493,1.78264,0.545108,0.011039,-0.836989,0.0467464,-1.12678,-0.261771,0.232817,-0.000733844,0.0109484,0.0356114,-0.0414187,0.0443392,0.0270788
1413393894005760512,0.278812,-0.65656,1.7944,0.552393,0.0113319,-0.832223,0.0462349,-1.15854,-0.230383,0.21996,-0.000778966,0.0107961,0.0353049,-0.0426445,0.0427533,0.0262445
1413393894055760384,0.221242,-0.669981,1.80384,0.557415,0.0128635,-0.828927,0.0447536,-1.18487,-0.228015,0.218156,-0.000595036,0.0113534,0.0366735,-0.033656,0.0522601,0.0305131
1413393894105760512,0.161373,-0.68003,1.81594,0.560802,0.0127657,-0.826617,0.0451902,-1.20832,-0.180312,0.234117,-0.000685713,0.0111003,0.0359343,-0.0421226,0.0486709,0.027304
1413393894155760384,0.0997969,-0.687314,1.82783,0.562002,0.0120956,-0.825737,0.0465317,-1.22755,-0.166866,0.234821,-0.000733834,0.0109485,0.0356116,-0.0413544,0.0445307,0.0270717
1413393894205760512,0.0387965,-0.697728,1.8379,0.562674,0.011749,-0.825251,0.0471234,-1.23941,-0.139646,0.226822,-0.000558361,0.0114232,0.0369853,-0.0296033,0.0548216,0.0326307
1413393894255760384,-0.0230183,-0.702857,1.85123,0.56293,0.0109654,-0.825033,0.0480612,-1.25944,-0.100956,0.233323,-0.000636332,0.0112416,0.0363342,-0.0388291,0.051688,0.0278769
1413393894305760512,-0.0870887,-0.706619,1.86255,0.563017,0.00902292,-0.824877,0.0500735,-1.26856,-0.0704017,0.200372,-0.000685696,0.0111005,0.0359346,-0.042143,0.0490118,0.0271389
1413393894355760384,-0.150701,-0.711746,1.86832,0.563921,0.0086072,-0.824293,0.0495994,-1.27743,-0.050652,0.11658,-0.000567429,0.0114931,0.037288,-0.0256429,0.05579,0.0357685
1413393894405760512,-0.214015,-0.713444,1.87285,0.563833,0.0094151,-0.824389,0.048844,-1.29501,-0.0272609,0.0276801,-0.00059494,0.0113539,0.0366745,-0.0319675,0.0548078,0.0310639
1413393894455760384,-0.279906,-0.71274,1.87353,0.564216,0.0106833,-0.824191,0.0474843,-1.31404,9.23527e-06,-0.0645531,-0.000636309,0.0112418,0.0363345,-0.0386413,0.0519973,0.0279191
1413393894505760512,-0.345511,-0.713991,1.8649,0.566173,0.0119139,-0.822978,0.0448607,-1.3132,0.0185514,-0.142526,-0.000567382,0.0116469,0.0376637,-0.0212859,0.055661,0.0413616
1413393894555760384,-0.410882,-0.712729,1.85764,0.567843,0.0135784,-0.821949,0.042059,-1.32991,0.0491341,-0.192135,-0.000558266,0.0114236,0.0369864,-0.0275454,0.0571014,0.0339025
1413393894605760512,-0.477992,-0.709379,1.84851,0.56855,0.0153719,-0.821554,0.03955,-1.346,0.0626035,-0.218935,-0.00059492,0.011354,0.0366748,-0.0316081,0.0551854,0.0312949
1413393894655760384,-0.546133,-0.707134,1.83353,0.57142,0.0164215,-0.81967,0.0367543,-1.33991,0.0846514,-0.221301,-0.000611807,0.0117329,0.0379604,-0.0159548,0.0534848,0.0508557
1413393894705760512,-0.612114,-0.701567,1.82475,0.572351,0.0176099,-0.819059,0.0352912,-1.3424,0.107805,-0.212428,-0.000567376,0.0114935,0.037289,-0.0236378,0.0569341,0.0375314
1413393894755760384,-0.679722,-0.696068,1.81541,0.573371,0.0189442,-0.818347,0.0345645,-1.35047,0.111401,-0.197704,-0.000558249,0.0114237,0.0369866,-0.0272604,0.0573253,0.0340822
1413393894805760512,-0.746788,-0.691138,1.80088,0.574249,0.0187549,-0.817715,0.0350403,-1.32799,0.144137,-0.190826,-0.000721241,0.0118304,0.0382807,-0.00996804,0.0507729,0.0590574
1413393894855760384,-0.812763,-0.682067,1.79601,0.575266,0.0193324,-0.816974,0.0353449,-1.33035,0.151534,-0.157236,-0.000567356,0.0116474,0.0376647,-0.0191465,0.0554714,0.0437534
1413393894905760512,-0.880462,-0.674709,1.78909,0.577544,0.0204438,-0.815343,0.0352219,-1.33383,0.153524,-0.1301,-0.000567371,0.0114936,0.0372893,-0.0233646,0.0568793,0.0378098
1413393894955760384,-0.944549,-0.668216,1.77783,0.58251,0.0211248,-0.811804,0.0347679,-1.29675,0.185297,-0.124073,-0.00093304,0.011815,0.0387059,0.00325187,0.0453463,0.0641988
1413393895005760512,-1.00981,-0.657738,1.77494,0.587177,0.0223016,-0.808412,0.0345807,-1.2961,0.183224,-0.0982539,-0.000611839,0.0117333,0.0379614,-0.01337,0.0520056,0.0545896
1413393895055760384,-1.07621,-0.64786,1.77279,0.591539,0.0232446,-0.805185,0.034901,-1.2903,0.187771,-0.0812071,-0.000567349,0.0116475,0.037665,-0.0188585,0.0552988,0.0441012
1413393895105760512,-1.13537,-0.639475,1.76125,0.593814,0.0244146,-0.8035,0.0342968,-1.24017,0.220076,-0.0992917,-0.00123473,0.0116051,0.0391727,0.0257246,0.0388875,0.0669501
1413393895155760384,-1.19761,-0.627794,1.76024,0.592678,0.0257052,-0.804337,0.0333634,-1.22355,0.213472,-0.0716636,-0.000721373,0.0118309,0.0382818,-0.00753118,0.0493019,0.0621654
1413393895205760512,-1.26095,-0.616688,1.75922,0.589616,0.0266395,-0.806554,0.0333586,-1.21143,0.226142,-0.0551099,-0.000611851,0.0117335,0.0379617,-0.0130627,0.0517981,0.0550368
1413393895255760384,-1.31701,-0.604876,1.74619,0.58905,0.0275689,-0.80694,0.0332706,-1.16638,0.244763,-0.091497,-0.0013742,0.0113158,0.0395082,0.0432924,0.0365154,0.0651272
1413393895305760512,-1.37449,-0.592842,1.74714,0.589346,0.0279038,-0.806702,0.0335188,-1.14555,0.237284,-0.101136,-0.000933348,0.0118153,0.0387071,0.00602769,0.0437114,0.0648787
1413393895355760384,-1.43297,-0.581772,1.7461,0.590814,0.0283352,-0.805638,0.0329104,-1.13057,0.238038,-0.105176,-0.000721425,0.011831,0.038282,-0.00731706,0.0492126,0.0623297
1413393895405760512,-1.48747,-0.567586,1.72341,0.594784,0.0290561,-0.802677,0.0331233,-1.08066,0.26062,-0.223615,-0.00143203,0.0112116,0.0396327,0.0509811,0.0364797,0.0630955
1413393895455760384,-1.53727,-0.554047,1.71645,0.595279,0.0296488,-0.802315,0.032469,-1.0398,0.278014,-0.255346,-0.00123528,0.0116052,0.039174,0.0291515,0.0372746,0.065726
1413393895505760512,-1.59146,-0.541567,1.71218,0.596219,0.027634,-0.801737,0.0312411,-1.02476,0.284775,-0.263075,-0.000933475,0.0118154,0.0387074,0.00635495,0.0434867,0.0647471
1413393895555760384,-1.64119,-0.525765,1.67953,0.597793,0.0259121,-0.800709,0.0289191,-0.968833,0.29867,-0.322272,-0.00143191,0.0111887,0.0396812,0.0537824,0.0372387,0.0624171
1413393895605760512,-1.68741,-0.509907,1.66723,0.597694,0.0216146,-0.800948,0.0278661,-0.953035,0.305612,-0.279452,-0.00137481,0.0113156,0.0395094,0.0458347,0.0358691,0.0637183
1413393895655760384,-1.73303,-0.494046,1.66196,0.597033,0.0174286,-0.801675,0.0237473,-0.920492,0.324566,-0.238753,-0.00123548,0.0116052,0.0391743,0.0294739,0.0371802,0.0655125
1413393895705760512,-1.77938,-0.479183,1.63593,0.602318,0.0142574,-0.797965,0.016155,-0.87164,0.323841,-0.246651,-0.00142632,0.0111636,0.0397052,0.0557846,0.0379107,0.0625562
1413393895755760384,-1.82216,-0.461499,1.62574,0.604378,0.00761136,-0.796582,0.0111905,-0.834331,0.334046,-0.225684,-0.00143255,0.0112113,0.0396335,0.051994,0.0366654,0.0623568
1413393895805760512,-1.8617,-0.443865,1.61886,0.607175,-0.000956347,-0.794548,0.00559607,-0.809288,0.350642,-0.198108,-0.00137497,0.0113155,0.0395096,0.045885,0.0359541,0.063633
1413393895855760384,-1.90159,-0.428432,1.60186,0.609636,-0.00984751,-0.792613,-0.00324687,-0.748444,0.356208,-0.19212,-0.00142643,0.0111636,0.0397053,0.0557691,0.0379946,0.0625246
1413393895905760512,-1.93766,-0.409946,1.59327,0.61111,-0.0208498,-0.791171,-0.0125719,-0.670345,0.36079,-0.196435,-0.00143224,0.0111885,0.0396816,0.0539473,0.0375172,0.0621942
1413393895955760384,-1.97022,-0.390724,1.58617,0.611013,-0.0357189,-0.790556,-0.0201783,-0.618166,0.372834,-0.157207,-0.00143263,0.0112112,0.0396336,0.051972,0.0367028,0.0623396
1413393896005760512,-1.99926,-0.376001,1.5758,0.609132,-0.0490358,-0.790841,-0.0335221,-0.564535,0.348574,-0.182463,-0.00146594,0.0111997,0.0397399,0.0544965,0.0407442,0.0633006
1413393896055760384,-2.02471,-0.357156,1.56487,0.608119,-0.0651946,-0.789851,-0.0455518,-0.510145,0.354947,-0.189264,-0.00142645,0.0111636,0.0397053,0.0557661,0.0379989,0.0625222
1413393896105760512,-2.05044,-0.338471,1.55848,0.606677,-0.0818996,-0.78846,-0.0597137,-0.477838,0.351981,-0.139339,-0.00143225,0.0111885,0.0396816,0.053947,0.0375176,0.062194
1413393896155760384,-2.09525,-0.336417,1.58212,0.600231,-0.097327,-0.790286,-0.0754877,-0.505602,0.273346,-0.105731,-0.00179503,0.0118357,0.0400017,0.0315462,0.0753784,0.0665928
1413393896205760512,-2.09108,-0.306624,1.54177,0.606956,-0.116399,-0.781442,-0.0860471,-0.369475,0.323908,-0.127326,-0.00142645,0.0111636,0.0397053,0.0557661,0.0379989,0.0625222
1413393896255760384,-2.10772,-0.29088,1.53552,0.610051,-0.133492,-0.77447,-0.101066,-0.30749,0.308404,-0.124214,-0.00142645,0.0111636,0.0397053,0.0557661,0.0379989,0.0625222
1413393896305760512,-2.17068,-0.299607,1.57822,0.603225,-0.146637,-0.774617,-0.120767,-0.387516,0.206243,-0.0653664,-0.00179633,0.0120318,0.0400689,0.0241723,0.0837705,0.0662403
1413393896355760384,-2.13491,-0.26635,1.52646,0.61298,-0.167186,-0.761179,-0.130038,-0.171457,0.243182,-0.0977386,-0.00146601,0.0111996,0.0397399,0.0544091,0.0409449,0.0632998
1413393896405760512,-2.13814,-0.250955,1.51935,0.614759,-0.187594,-0.753076,-0.140559,-0.0853341,0.235613,-0.0692052,-0.00142645,0.0111636,0.0397053,0.0557661,0.0379989,0.0625222
1413393896455760384,-2.21636,-0.276034,1.57537,0.607054,-0.206743,-0.75187,-0.153085,-0.200193,0.0926221,-0.0104399,-0.00179543,0.0120594,0.0400789,0.0228901,0.0857235,0.0661357
1413393896505760512,-2.20571,-0.268103,1.56322,0.606447,-0.23075,-0.744442,-0.157428,-0.0799818,0.0813727,0.0149128,-0.00179566,0.0118355,0.0400016,0.0303292,0.0772862,0.0662183
1413393896555760384,-2.1369,-0.229719,1.51313,0.608539,-0.259387,-0.733749,-0.154955,0.177102,0.138538,-0.0645476,-0.00146605,0.0111996,0.0397399,0.0543998,0.0409701,0.0633023
1413393896605760512,-2.2377,-0.268269,1.58173,0.591345,-0.27885,-0.73795,-0.167281,-0.0114552,0.0434897,0.0285891,-0.00185844,0.0122392,0.0402308,0.0230695,0.0923382,0.0661054
1413393896655760384,-2.2238,-0.263769,1.57887,0.585492,-0.301891,-0.73253,-0.17164,0.0740175,0.0517766,0.0420105,-0.00179701,0.0120315,0.0400687,0.0231983,0.0853349,0.0660018
1413393896705760512,-2.19342,-0.254943,1.56695,0.58126,-0.325214,-0.725567,-0.172986,0.187222,0.08688,0.0533587,-0.00179601,0.0118353,0.0400014,0.0301214,0.0776852,0.0661886
1413393896755760384,-2.23101,-0.261483,1.59245,0.571333,-0.346199,-0.722591,-0.177724,0.156247,0.0749311,0.0682686,-0.00186686,0.0122826,0.0403073,0.0230007,0.094815,0.0674653
1413393896805760512,-2.20218,-0.252387,1.59037,0.568248,-0.368258,-0.714107,-0.17757,0.267872,0.117167,0.0815112,-0.00179603,0.0120591,0.0400787,0.0224122,0.0865773,0.0660597
1413393896855760384,-2.18295,-0.244441,1.59199,0.561578,-0.389657,-0.707892,-0.17801,0.345406,0.162784,0.060099,-0.00179724,0.0120314,0.0400686,0.0231314,0.0854802,0.0660019
1413393896905760512,-2.29056,-0.22902,1.62942,0.536755,-0.410076,-0.71344,-0.186373,0.167333,0.208696,0.0876324,-0.00185725,0.0136225,0.0409545,0.0231883,0.13737,0.0638774
1413393896955760384,-2.16471,-0.22751,1.60554,0.536454,-0.429798,-0.702575,-0.184063,0.455896,0.253171,0.0638591,-0.00185889,0.0122391,0.0402308,0.022929,0.0928606,0.0660216
1413393897005760512,-2.1186,-0.209971,1.6028,0.520349,-0.444807,-0.704345,-0.187832,0.553784,0.32714,0.0327808,-0.00179606,0.0120591,0.0400786,0.0224095,0.0865854,0.0660605
1413393897055760384,-2.25428,-0.186837,1.64042,-0.482626,0.451783,0.721595,0.205586,0.274307,0.416077,0.0504785,-0.00197905,0.0136677,0.0413313,0.0240818,0.140266,0.0663002
1413393897105760512,-2.09506,-0.177257,1.6119,-0.476265,0.456885,0.720262,0.213661,0.545164,0.488189,-0.00251233,-0.00186713,0.0122826,0.0403074,0.0229827,0.095109,0.0674499
1413393897155760384,-2.05775,-0.145804,1.608,-0.461669,0.454609,0.72654,0.228764,0.560932,0.569006,-0.034943,-0.00185897,0.0122391,0.0402308,0.022927,0.092896,0.0660157
1413393897205760512,-2.22239,-0.119684,1.65665,-0.434855,0.444785,0.738742,0.259473,0.183413,0.627194,0.0252198,-0.00176889,0.0137466,0.0418624,0.018023,0.140488,0.0767347
1413393897255760384,-2.20956,-0.064379,1.64378,-0.430847,0.436425,0.738728,0.279615,0.143455,0.718025,0.0063075,-0.00185781,0.0136226,0.0409549,0.0227513,0.138724,0.0634464
1413393897305760512,-1.99323,-0.0533018,1.60864,-0.446952,0.42515,0.729115,0.296433,0.431984,0.707039,-0.00345842,-0.00186718,0.0122826,0.0403074,0.0229817,0.0951233,0.0674532
1413393897355760384,-2.21323,-0.025627,1.66867,-0.43494,0.408568,0.733303,0.325831,-0.050962,0.691614,0.0554577,-0.00166852,0.0137181,0.0422052,0.0155339,0.139473,0.0821413
1413393897405760512,-2.20558,0.0406786,1.64644,-0.443574,0.406206,0.727604,0.329894,-0.103693,0.754861,0.0120946,-0.00197973,0.0136677,0.0413319,0.0237364,0.141368,0.0660614
1413393897455760384,-2.21161,0.0870633,1.64684,-0.454458,0.407653,0.720014,0.32995,-0.164845,0.762891,0.00411501,-0.00185811,0.0136226,0.0409551,0.0226448,0.13897,0.0633674
1413393897505760512,-2.24098,0.0756075,1.68126,-0.462967,0.404599,0.71498,0.332812,-0.290392,0.647796,0.0336833,-0.00164638,0.0137036,0.0423857,0.0118548,0.139401,0.0856054
1413393897555760384,-2.24931,0.122395,1.66696,-0.471293,0.407824,0.710361,0.327031,-0.317624,0.665462,0.00322611,-0.00176939,0.0137467,0.0418632,0.0175298,0.1415,0.0769242
1413393897605760512,-2.25215,0.186435,1.64553,-0.477556,0.412076,0.707923,0.31777,-0.321273,0.69182,-0.0167677,-0.00197998,0.0136677,0.0413321,0.0237004,0.141549,0.0660625
1413393897655760384,-2.2954,0.166569,1.68719,-0.477512,0.411032,0.707731,0.319612,-0.426019,0.575253,0.0302558,-0.00164279,0.0137121,0.0424431,0.0111997,0.140365,0.0874413
1413393897705760512,-2.31234,0.199468,1.67782,-0.479482,0.413073,0.707535,0.314421,-0.435615,0.585395,0.0488791,-0.00166887,0.0137181,0.0422061,0.01511,0.140303,0.0826757
1413393897755760384,-2.32692,0.248042,1.67047,-0.480258,0.413716,0.708511,0.310167,-0.437653,0.613239,0.035088,-0.00176952,0.0137467,0.0418634,0.0174656,0.141649,0.0769993
1413393897805760512,-2.36741,0.248796,1.70069,-0.477651,0.410442,0.710663,0.313601,-0.526958,0.538578,0.070998,-0.00161664,0.0137559,0.0426373,0.00887217,0.141809,0.0894522
1413393897855760384,-2.38955,0.281034,1.69688,-0.477967,0.409848,0.710527,0.314202,-0.521569,0.561023,0.0843294,-0.00164663,0.0137035,0.0423863,0.0114018,0.140054,0.0861282
1413393897905760512,-2.40939,0.313024,1.6906,-0.476975,0.410666,0.709992,0.315848,-0.526907,0.553955,0.10006,-0.00166895,0.0137181,0.0422063,0.0150509,0.140397,0.0827729
1413393897955760384,-2.45092,0.327039,1.71584,-0.470368,0.410476,0.710884,0.323893,-0.606914,0.519051,0.115354,-0.00160575,0.0139147,0.0427914,0.0107354,0.145358,0.0903111
1413393898005760512,-2.47673,0.358653,1.71482,-0.468099,0.412286,0.707987,0.331146,-0.602512,0.510355,0.117458,-0.00164302,0.013712,0.0424435,0.0108853,0.140874,0.0876977
1413393898055760384,-2.50328,0.387579,1.71826,-0.464649,0.415114,0.703953,0.340927,-0.625145,0.510121,0.142031,-0.00164671,0.0137034,0.0423864,0.0113258,0.140129,0.0861588
1413393898105760512,-2.5289,0.364151,1.73557,-0.462014,0.415866,0.696261,0.358912,-0.726055,0.408331,0.185581,-0.00157318,0.0132371,0.0429573,-0.0151439,0.141527,0.0932515
1413393898155760384,-2.58205,0.425694,1.74418,-0.468394,0.420698,0.683772,0.368883,-0.731133,0.408569,0.193198,-0.00161687,0.0137557,0.0426376,0.00859439,0.142255,0.0894586
1413393898205760512,-2.61142,0.44803,1.74568,-0.478679,0.426942,0.66672,0.379568,-0.738653,0.343781,0.179954,-0.0016431,0.0137119,0.0424435,0.010863,0.140938,0.0877075
1413393898255760384,-2.64509,0.41257,1.76617,-0.48786,0.430337,0.648348,0.395533,-0.833276,0.212365,0.232147,-0.00157731,0.0132407,0.042972,-0.0162821,0.141943,0.0938467
1413393898305760512,-2.70376,0.468233,1.77382,0.50119,-0.436094,-0.631289,-0.40013,-0.837235,0.182298,0.21066,-0.00160598,0.0139147,0.0427916,0.0107942,0.145791,0.0900776
1413393898355760384,-2.73939,0.477825,1.78445,0.517453,-0.44249,-0.611257,-0.403498,-0.813361,0.0852909,0.207787,-0.00161694,0.0137557,0.0426376,0.0085717,0.142296,0.0894501
1413393898405760512,-2.77281,0.423992,1.80136,0.531744,-0.444915,-0.591681,-0.411354,-0.851666,-0.0857217,0.240563,-0.00157753,0.0132404,0.042972,-0.0171128,0.142162,0.094326
1413393898455760384,-2.81445,0.416182,1.81297,0.54947,-0.448446,-0.572113,-0.411905,-0.814753,-0.215796,0.235596,-0.00157364,0.0132366,0.0429573,-0.0172883,0.142112,0.094538
1413393898505760512,-2.86575,0.461513,1.81372,0.56317,-0.45528,-0.55838,-0.404687,-0.729477,-0.271373,0.140037,-0.00160604,0.0139148,0.0427916,0.0108277,0.145834,0.0900489
1413393898555760384,-2.8958,0.386713,1.84648,0.56358,-0.468106,-0.55588,-0.392748,-0.736939,-0.433873,0.0762216,-0.00158058,0.0133445,0.04305,-0.0244698,0.145283,0.0966836
1413393898605760512,-2.92499,0.358143,1.82996,0.556039,-0.483285,-0.562484,-0.375322,-0.63765,-0.556733,0.00208974,-0.00157772,0.01324,0.0429719,-0.0177027,0.142321,0.09467
1413393898655760384,-2.95474,0.327485,1.82866,0.543192,-0.501262,-0.572348,-0.355102,-0.55349,-0.650357,-0.0409623,-0.00157385,0.0132361,0.0429572,-0.0177105,0.142228,0.0947922
1413393898705760512,-2.98996,0.300283,1.84765,0.529312,-0.515677,-0.583498,-0.336803,-0.506107,-0.699122,-0.0815621,-0.00158142,0.0133698,0.0430718,-0.0247998,0.145983,0.096948
1413393898755760384,-3.00254,0.256453,1.8196,0.509972,-0.531901,-0.597493,-0.316247,-0.391759,-0.754316,-0.133818,-0.00157783,0.0132399,0.0429719,-0.0177472,0.142335,0.0947008
1413393898805760512,-3.02003,0.218841,1.81235,-0.484968,0.548245,0.613662,0.29606,-0.311612,-0.743679,-0.145628,-0.0015778,0.0132399,0.0429719,-0.0177471,0.142336,0.0947011
1413393898855760384,-3.04682,0.193509,1.83144,-0.456857,0.563693,0.629618,0.277691,-0.258775,-0.660871,-0.0751064,-0.00158146,0.0133698,0.0430719,-0.024881,0.146039,0.0969403
1413393898905760512,-3.05573,0.161723,1.82738,-0.434428,0.575653,0.640789,0.263221,-0.180675,-0.566721,-0.016998,-0.00158077,0.0133441,0.04305,-0.02482,0.145455,0.0967553
1413393898955760384,-3.04938,0.123674,1.80162,-0.414942,0.583446,0.650473,0.253571,-0.103249,-0.465343,0.0148815,-0.00157783,0.0132399,0.0429719,-0.0177472,0.142335,0.0947008
1413393899005760512,-3.11627,0.136054,1.85868,-0.386231,0.590081,0.663348,0.250198,-0.181384,-0.244052,0.0910928,-0.00144528,0.0140245,0.0434261,-0.0218463,0.157753,0.100842
1413393899055760384,-3.07416,0.1098,1.83915,-0.377514,0.587186,0.669444,0.254047,-0.0423381,-0.0738858,0.185209,-0.0015815,0.0133697,0.0430719,-0.0249258,0.146064,0.096942
1413393899105760512,-3.07252,0.108715,1.84884,-0.371482,0.578428,0.674002,0.270452,-0.0381876,0.10182,0.281714,-0.0015808,0.0133441,0.04305,-0.0248474,0.145467,0.0967586
1413393899155760384,-3.15237,0.142608,1.88228,-0.370858,0.56469,0.673668,0.299602,-0.205655,0.323583,0.368637,-0.00128594,0.0142141,0.0436576,-0.0114764,0.163155,0.100219
1413393899205760512,-3.0815,0.136091,1.88908,-0.399828,0.546017,0.659091,0.328027,-0.0765131,0.362954,0.459996,-0.0015815,0.0133697,0.0430719,-0.0249264,0.146065,0.0969421
1413393899255760384,-3.08588,0.155155,1.91239,-0.427783,0.526365,0.641186,0.358918,-0.101159,0.391261,0.482677,-0.0015815,0.0133697,0.0430719,-0.0249264,0.146065,0.0969421
1413393899305760512,-3.19083,0.208524,1.9527,-0.452187,0.506485,0.621612,0.390638,-0.290763,0.444683,0.479019,-0.00127305,0.0142281,0.0436614,-0.0119435,0.163572,0.100093
1413393899355760384,-3.18605,0.229955,1.99145,-0.484976,0.488334,0.596973,0.412252,-0.268839,0.372714,0.489115,-0.00144553,0.0140247,0.0434261,-0.0216451,0.158324,0.100449
1413393899405760512,-3.10191,0.203112,1.98476,0.519505,-0.472138,-0.570826,-0.42586,-0.0920238,0.187277,0.457264,-0.0015815,0.0133697,0.0430719,-0.0249264,0.146065,0.0969421
1413393899455760384,-3.23571,0.254976,2.02205,0.534195,-0.459908,-0.556648,-0.439617,-0.277597,0.11821,0.460516,-0.00127317,0.0142282,0.0436614,-0.0117692,0.163769,0.0999903
1413393899505760512,-3.24902,0.254391,2.04214,0.55922,-0.449165,-0.53606,-0.445155,-0.248413,-0.0513623,0.436301,-0.00128613,0.0142145,0.0436577,-0.0110046,0.163711,0.0999074
1413393899555760384,-3.23094,0.250065,2.08447,0.582157,-0.44143,-0.517491,-0.445461,-0.151874,-0.237898,0.424643,-0.00144568,0.0140248,0.0434262,-0.0215849,0.158436,0.100376
1413393899605760512,-3.30191,0.247377,2.10549,0.595155,-0.43624,-0.508662,-0.443562,-0.18113,-0.408434,0.374666,-0.001211,0.0143422,0.0439,-0.0162589,0.16693,0.101313
1413393899655760384,-3.27373,0.206606,2.10168,0.606527,-0.439757,-0.503429,-0.430462,-0.0583935,-0.628876,0.280565,-0.0012732,0.0142284,0.0436615,-0.0116871,0.163856,0.0999716
1413393899705760512,-3.27401,0.16736,2.11117,0.607267,-0.448402,-0.509469,-0.413043,0.0329606,-0.815856,0.216765,-0.00128618,0.0142146,0.0436578,-0.0109577,0.163758,0.0999042
1413393899755760384,-3.34816,0.127247,2.16334,0.59385,-0.465053,-0.526355,-0.392452,0.018891,-0.978208,0.201001,-0.00106325,0.0142695,0.0440845,-0.0236255,0.171075,0.105292
1413393899805760512,-3.26073,0.0737538,2.13002,0.583462,-0.484384,-0.542147,-0.361968,0.245004,-1.10972,0.12435,-0.00127325,0.0142284,0.0436615,-0.0116858,0.163856,0.0999712
1413393899855760384,-3.24588,0.0156286,2.13471,0.564719,-0.505697,-0.561729,-0.331395,0.346644,-1.20692,0.0502975,-0.00127321,0.0142284,0.0436615,-0.0116866,0.163856,0.0999721
1413393899905760512,-3.32777,-0.0335651,2.18836,0.535482,-0.528166,-0.584932,-0.303568,0.306033,-1.24485,0.0648871,-0.00106029,0.0143286,0.0441058,-0.0241227,0.171425,0.105072
1413393899955760384,-3.2559,-0.0861204,2.16385,0.508037,-0.550583,-0.605476,-0.268616,0.491367,-1.23009,0.0155688,-0.00121113,0.0143422,0.0439001,-0.0163488,0.167184,0.101226
1413393900005760512,-3.16904,-0.170558,2.13705,-0.482712,0.568512,0.621115,0.24083,0.676569,-1.19875,-0.0016278,-0.00127325,0.0142284,0.0436615,-0.0116858,0.163856,0.0999712
1413393900055760384,-3.25804,-0.214278,2.19618,-0.453895,0.583068,0.634234,0.227505,0.613203,-1.08762,0.0554309,-0.00106038,0.0143286,0.0441058,-0.0241842,0.171594,0.105107
1413393900105760512,-3.22005,-0.280573,2.19341,-0.433964,0.59276,0.642562,0.217775,0.697176,-0.969804,0.0494849,-0.00106344,0.0142694,0.0440845,-0.02379,0.171541,0.105414
1413393900155760384,-3.11802,-0.295206,2.16951,-0.417412,0.5974,0.650573,0.213626,0.856521,-0.770043,0.0179318,-0.0012112,0.0143422,0.0439001,-0.0163701,0.167235,0.101213
1413393900205760512,-3.23572,-0.251809,2.23108,-0.392444,0.60025,0.661183,0.220283,0.702873,-0.513982,0.0518296,-0.000937957,0.0150201,0.0444227,-0.0214185,0.173932,0.102013
1413393900255760384,-3.10668,-0.370797,2.20641,-0.385386,0.594959,0.666597,0.230543,0.861302,-0.437421,0.0510773,-0.00106046,0.0143286,0.0441058,-0.0242116,0.17168,0.105135
1413393900305760512,-3.05676,-0.407581,2.20192,-0.376326,0.587216,0.67271,0.247017,0.878266,-0.286453,0.0349418,-0.00106351,0.0142694,0.0440845,-0.0238045,0.171592,0.105436
1413393900355760384,-3.14211,-0.273357,2.19608,-0.36207,0.578701,0.679742,0.268256,0.698379,0.0454866,0.00908374,-0.000847861,0.0152936,0.0445504,-0.00582798,0.17388,0.0947458
1413393900405760512,-2.97788,-0.399216,2.21198,-0.376525,0.563739,0.674369,0.292666,0.830169,0.0336682,0.0272155,-0.00106047,0.0143286,0.0441058,-0.0242118,0.171681,0.105136
1413393900455760384,-2.93726,-0.395409,2.21273,-0.386933,0.550314,0.668071,0.317993,0.796501,0.115004,0.00494724,-0.00106046,0.0143286,0.0441058,-0.0242118,0.171681,0.105136
1413393900505760512,-3.0477,-0.238631,2.19519,-0.393846,0.538217,0.661579,0.342813,0.572441,0.353767,-0.0531397,-0.000826602,0.0153014,0.0445692,-0.00586092,0.174018,0.0945422
1413393900555760384,-2.9962,-0.239908,2.24095,-0.41561,0.523473,0.647236,0.366509,0.560631,0.353658,-0.0432079,-0.000938206,0.0150203,0.0444227,-0.0213639,0.174278,0.10163
1413393900605760512,-2.82643,-0.368734,2.20678,-0.448912,0.50657,0.624659,0.389442,0.693133,0.182102,-0.0973249,-0.00106047,0.0143286,0.0441058,-0.0242118,0.171681,0.105136
1413393900655760384,-2.97001,-0.183547,2.17751,-0.464688,0.493308,0.610307,0.410168,0.478939,0.323518,-0.178457,-0.000826661,0.0153016,0.0445692,-0.00571784,0.174122,0.0943977
1413393900705760512,-2.94407,-0.169909,2.16519,-0.489827,0.480349,0.589837,0.425941,0.473794,0.240004,-0.266471,-0.000848089,0.015294,0.0445505,-0.00545223,0.174173,0.0943223
1413393900755760384,-2.89236,-0.1861,2.20946,0.511968,-0.470768,-0.571371,-0.435663,0.497943,0.0954466,-0.267357,-0.000938352,0.0150204,0.0444228,-0.0213369,0.174345,0.101557
1413393900805760512,-2.92824,-0.161966,2.13792,0.525529,-0.465391,-0.560405,-0.439517,0.431045,-0.0132944,-0.313549,-0.000759237,0.0153122,0.0447603,-0.0050981,0.175034,0.0940067
1413393900855760384,-2.87604,-0.16015,2.12039,0.537421,-0.46823,-0.552243,-0.432397,0.493948,-0.15165,-0.339009,-0.000826799,0.0153017,0.0445693,-0.00564372,0.174165,0.0943445
1413393900905760512,-2.84774,-0.171987,2.10213,0.540894,-0.475789,-0.551548,-0.420538,0.524257,-0.290641,-0.343435,-0.000848162,0.0152941,0.0445505,-0.00540946,0.174194,0.0942951
1413393900955760384,-2.96006,-0.167972,2.07507,0.531571,-0.487416,-0.559451,-0.408501,0.364484,-0.409737,-0.330647,-0.000531803,0.0154997,0.045317,0.00283686,0.17668,0.088897
1413393901005760512,-2.79439,-0.212444,2.06987,0.531195,-0.504989,-0.563863,-0.380627,0.618029,-0.522414,-0.314748,-0.000826764,0.0153017,0.0445693,-0.00564327,0.174164,0.094344
1413393901055760384,-2.76208,-0.240705,2.05478,0.521518,-0.521425,-0.573074,-0.357382,0.674661,-0.604497,-0.288137,-0.000826801,0.0153017,0.0445693,-0.00564317,0.174165,0.0943443
1413393901105760512,-2.89456,-0.246381,2.01892,-0.496463,0.533492,0.590862,0.34611,0.527509,-0.632136,-0.293244,-0.000529068,0.0155122,0.0453376,0.00541817,0.176915,0.0874707
1413393901155760384,-2.7329,-0.314079,2.02885,-0.477986,0.547405,0.60594,0.323594,0.754517,-0.66238,-0.25377,-0.00075933,0.0153122,0.0447604,-0.00505819,0.17521,0.0939963
1413393901205760512,-2.64492,-0.337066,2.0155,-0.453725,0.55575,0.623575,0.310532,0.861389,-0.621477,-0.210189,-0.000826764,0.0153017,0.0445693,-0.00564327,0.174164,0.094344
1413393901255760384,-2.80568,-0.338596,1.9823,-0.423359,0.559656,0.641201,0.310504,0.641857,-0.543548,-0.178929,-0.000529189,0.0155122,0.0453377,0.00551936,0.177142,0.0873785
1413393901305760512,-2.77277,-0.367543,1.98471,-0.403832,0.563342,0.652887,0.305456,0.643384,-0.456016,-0.135267,-0.000532103,0.0154998,0.0453171,0.00305486,0.177268,0.0886918
1413393901355760384,-2.56865,-0.424686,1.9962,-0.395643,0.56623,0.659101,0.297383,0.838106,-0.374639,-0.0897936,-0.00075938,0.0153122,0.0447604,-0.00505308,0.175241,0.0939945
1413393901405760512,-2.75375,-0.405202,1.9489,-0.374662,0.566365,0.668469,0.303329,0.517258,-0.24207,-0.0845103,-0.000258707,0.0156975,0.0460071,0.00836074,0.178524,0.0831866
1413393901455760384,-2.68046,-0.406551,1.96004,-0.369445,0.570079,0.671378,0.296263,0.595054,-0.106302,-0.0595928,-0.000529369,0.0155123,0.0453377,0.00558779,0.177298,0.0873299
1413393901505760512,-2.65046,-0.413052,1.96955,-0.361862,0.57042,0.675482,0.295637,0.558203,0.0272628,-0.031971,-0.000532259,0.0154998,0.0453172,0.00308946,0.177377,0.0886698
1413393901555760384,-2.64678,-0.390925,1.92835,-0.351441,0.563763,0.683188,0.303173,0.373736,0.144766,-0.0313546,-0.000304255,0.0156063,0.0465928,0.0150775,0.182188,0.0799529
1413393901605760512,-2.59972,-0.391047,1.95673,-0.352602,0.566457,0.681247,0.301166,0.480913,0.323528,0.0412898,-0.000529424,0.0155123,0.0453377,0.0056012,0.177326,0.0873305
1413393901655760384,-2.57718,-0.371236,1.95987,-0.354946,0.558503,0.681422,0.312653,0.420344,0.473536,0.10079,-0.00052944,0.0155123,0.0453377,0.00560144,0.177327,0.0873307
1413393901705760512,-2.5575,-0.346297,1.93674,-0.359577,0.537442,0.684191,0.337257,0.174248,0.539577,0.102089,-0.000525879,0.0156546,0.0469826,0.0179127,0.18452,0.0786073
1413393901755760384,-2.62612,-0.323868,1.95531,-0.372318,0.534507,0.670953,0.354266,0.15726,0.651749,0.141919,-0.00025894,0.0156977,0.0460074,0.00843604,0.179231,0.0831051
1413393901805760512,-2.52761,-0.278339,1.98104,-0.395743,0.526467,0.659049,0.363146,0.237725,0.716253,0.156289,-0.00052943,0.0155123,0.0453377,0.00560141,0.177327,0.0873306
1413393901855760384,-2.50985,-0.26359,1.95166,-0.405848,0.508439,0.658393,0.378544,-0.027076,0.674637,0.0923751,-0.000611536,0.0157437,0.0473952,0.0203912,0.187592,0.0765053
1413393901905760512,-2.59569,-0.206462,1.95749,-0.41716,0.514443,0.644555,0.381934,-0.0656564,0.695656,0.0688172,-0.000304337,0.0156065,0.0465933,0.0153628,0.183313,0.0796306
1413393901955760384,-2.61721,-0.181175,1.97873,-0.422842,0.521378,0.636883,0.379144,-0.0421506,0.73603,0.0797429,-0.000259069,0.0156978,0.0460076,0.00842853,0.179368,0.0831026
1413393902005760512,-2.5112,-0.157787,1.96214,-0.425091,0.510995,0.644139,0.378505,-0.171044,0.688364,0.0621551,-0.000661941,0.015798,0.0476323,0.0219124,0.189462,0.0755032
1413393902055760384,-2.57217,-0.113183,1.96887,-0.426502,0.516956,0.63942,0.376822,-0.196385,0.700203,0.0834518,-0.000525972,0.0156548,0.0469832,0.0182278,0.186148,0.0778394
1413393902105760512,-2.62332,-0.0665975,1.97308,-0.426108,0.522001,0.635658,0.376677,-0.197194,0.705322,0.090964,-0.000304393,0.0156066,0.0465935,0.0153936,0.183608,0.0794719
1413393902155760384,-2.5329,-0.0574244,1.97748,-0.425832,0.513567,0.642455,0.377051,-0.283004,0.689675,0.0901027,-0.000707929,0.0158684,0.0478288,0.023337,0.191243,0.0740361
1413393902205760512,-2.57359,-0.0228126,1.97773,-0.425236,0.515237,0.641336,0.377351,-0.305312,0.694189,0.0939339,-0.000611601,0.015744,0.0473959,0.0208113,0.1897,0.0754035
1413393902255760384,-2.62371,0.0267615,1.98799,-0.425387,0.517734,0.638689,0.37825,-0.322159,0.701975,0.103764,-0.000526038,0.0156549,0.0469833,0.0182506,0.186524,0.0776618
1413393902305760512,-2.56467,0.0287194,1.99718,-0.423606,0.512807,0.643759,0.378366,-0.392673,0.698677,0.0847974,-0.000753641,0.0159703,0.0480617,0.0247303,0.193885,0.0709862
1413393902355760384,-2.61443,0.0844287,1.99089,-0.424213,0.513767,0.641777,0.379749,-0.413349,0.70103,0.0496722,-0.000662034,0.0157983,0.0476329,0.0223115,0.191256,0.074652
1413393902405760512,-2.64837,0.117028,1.99288,-0.42585,0.514063,0.639767,0.380905,-0.437129,0.711899,0.0160144,-0.000611646,0.015744,0.047396,0.020882,0.190072,0.0752144
1413393902455760384,-2.60488,0.112571,2.00515,-0.425573,0.509365,0.642968,0.382135,-0.50202,0.698219,-0.0128942,-0.000739612,0.0160818,0.0483679,0.0239919,0.196835,0.066837
1413393902505760512,-2.67313,0.185177,1.9946,-0.429898,0.5092,0.637885,0.386012,-0.515297,0.677387,-0.0244203,-0.000708051,0.0158686,0.0478294,0.0238023,0.192527,0.073339
1413393902555760384,-2.71027,0.222153,1.9899,-0.430899,0.509497,0.636685,0.386485,-0.548841,0.662365,-0.0283072,-0.000662075,0.0157984,0.0476331,0.0223815,0.191403,0.0746001
1413393902605760512,-2.67651,0.228182,2.01021,-0.42884,0.507268,0.64043,0.385518,-0.617768,0.664784,0.0286057,-0.000552592,0.0160904,0.0486385,0.0269711,0.200973,0.0644503
1413393902655760384,-2.74325,0.268858,2.00231,-0.42919,0.509859,0.638687,0.384602,-0.636691,0.655115,0.0869424,-0.000753735,0.0159706,0.0480623,0.0251583,0.195159,0.0697708
1413393902705760512,-2.79134,0.315895,2.00341,-0.429394,0.511183,0.637443,0.38468,-0.660708,0.632542,0.173615,-0.000708102,0.0158687,0.0478295,0.0238777,0.192652,0.0732574
1413393902755760384,-2.7788,0.336671,2.03317,-0.426558,0.510486,0.640296,0.384022,-0.748846,0.637289,0.212766,-0.000302095,0.0159789,0.0488271,0.0303748,0.203893,0.0646476
1413393902805760512,-2.82551,0.347928,2.03353,-0.428372,0.516654,0.639519,0.374943,-0.748167,0.647861,0.264264,-0.000739591,0.016082,0.0483686,0.0240608,0.198432,0.0649697
1413393902855760384,-2.88459,0.397246,2.04479,-0.431856,0.524129,0.635984,0.366488,-0.773042,0.641367,0.286667,-0.000753765,0.0159706,0.0480625,0.0251909,0.195323,0.0695758
1413393902905760512,-2.89821,0.434807,2.07203,-0.43117,0.533362,0.634924,0.355653,-0.828069,0.656308,0.297337,-0.000185599,0.0158875,0.0489638,0.0291876,0.204755,0.0663669
1413393902955760384,-2.93816,0.459647,2.08231,-0.431078,0.542751,0.635054,0.341026,-0.814562,0.700078,0.287306,-0.000552384,0.0160905,0.0486392,0.0271332,0.202286,0.0640489
1413393903005760512,-2.98357,0.484893,2.09126,-0.432413,0.551421,0.633373,0.328317,-0.784236,0.742765,0.296298,-0.000739569,0.0160819,0.0483687,0.0240169,0.198616,0.0647278
1413393903055760384,-3.02068,0.54176,2.11163,-0.433518,0.557624,0.628974,0.324822,-0.784774,0.754117,0.309706,-0.000149404,0.0158816,0.0490737,0.0262006,0.205089,0.0679946
1413393903105760512,-3.05985,0.578523,2.13106,-0.433982,0.558059,0.628376,0.324612,-0.766116,0.810438,0.325681,-0.000301737,0.0159789,0.0488279,0.0305413,0.204456,0.0662177
1413393903155760384,-3.09397,0.616101,2.14546,-0.437115,0.554927,0.627101,0.328223,-0.729401,0.869535,0.345647,-0.000552323,0.0160905,0.0486394,0.0271788,0.202371,0.0642715
1413393903205760512,-3.13297,0.664832,2.15873,-0.438825,0.550994,0.623993,0.338337,-0.70601,0.86658,0.336719,-0.000136251,0.0158893,0.0491847,0.0236971,0.204514,0.0691334
1413393903255760384,-3.16882,0.706755,2.18099,-0.439678,0.547319,0.622016,0.34673,-0.694622,0.893554,0.305499,-0.000185227,0.0158874,0.0489645,0.0290206,0.204637,0.0681915
1413393903305760512,-3.20302,0.753546,2.19585,-0.439398,0.545361,0.619426,0.354713,-0.668452,0.915894,0.289078,-0.000301631,0.015979,0.048828,0.0305599,0.204432,0.0665298
1413393903355760384,-3.23504,0.799556,2.20096,-0.436962,0.546327,0.615256,0.363388,-0.638495,0.91229,0.240215,-0.000102307,0.0158175,0.0493606,0.0205937,0.20181,0.069981
1413393903405760512,-3.26553,0.845113,2.21735,-0.433755,0.551164,0.608447,0.371304,-0.621382,0.920749,0.161069,-0.000149095,0.0158816,0.0490744,0.0257797,0.204591,0.0686936
1413393903455760384,-3.29852,0.889291,2.22506,-0.430541,0.558568,0.599669,0.378198,-0.615053,0.914562,0.0547779,-0.000185126,0.0158874,0.0489646,0.0289496,0.204563,0.0682783
1413393903505760512,-3.32574,0.937942,2.216,-0.428414,0.568266,0.588492,0.383681,-0.59094,0.900453,-0.0511027,-6.97302e-05,0.0158131,0.0495582,0.0137164,0.202044,0.0707889
1413393903555760384,-3.35516,0.981283,2.21531,-0.426356,0.578716,0.575378,0.39019,-0.580687,0.891016,-0.143975,-0.00013601,0.0158892,0.0491853,0.0231976,0.204104,0.0692326
1413393903605760512,-3.38457,1.02584,2.21018,-0.428172,0.587613,0.559488,0.397935,-0.568541,0.887237,-0.154392,-0.000149021,0.0158815,0.0490745,0.0257002,0.20451,0.0686322
1413393903655760384,-3.40938,1.07185,2.20003,-0.431042,0.595498,0.543659,0.404994,-0.537621,0.856363,-0.119063,-5.9952e-05,0.0159105,0.049683,0.000275049,0.2078,0.068758
1413393903705760512,-3.43892,1.11004,2.19043,-0.432179,0.603642,0.528415,0.411844,-0.508099,0.840479,-0.142223,-0.000102097,0.0158174,0.0493612,0.0199261,0.201637,0.0706594
1413393903755760384,-3.46229,1.15236,2.18629,-0.432069,0.6117,0.514578,0.41755,-0.469541,0.808347,-0.128658,-0.00013596,0.0158892,0.0491855,0.0231377,0.204072,0.0692724
1413393903805760512,-3.48141,1.19456,2.18246,-0.430532,0.620764,0.504354,0.418236,-0.429364,0.779798,-0.0876135,-1.22289e-05,0.0160125,0.0497986,-0.00687461,0.210505,0.0679313
1413393903855760384,-3.50599,1.22981,2.17245,-0.429871,0.629351,0.494262,0.41813,-0.391625,0.73826,-0.0912535,-6.95395e-05,0.0158129,0.0495588,0.0127843,0.202015,0.0717287
1413393903905760512,-3.52483,1.26394,2.16704,-0.429754,0.637967,0.485241,0.415752,-0.340096,0.704416,-0.0831354,-0.000102038,0.0158173,0.0493614,0.0198221,0.201613,0.0708063
1413393903955760384,-3.53586,1.30332,2.1736,-0.428602,0.64634,0.478487,0.41182,-0.268028,0.681673,-0.0186941,5.35492e-05,0.0161167,0.0499409,-0.00688421,0.207113,0.0688775
1413393904005760512,-3.54853,1.33769,2.17254,-0.42822,0.65137,0.472287,0.411447,-0.205469,0.651488,0.0028528,-5.97781e-05,0.0159104,0.0496836,-0.00103753,0.207581,0.0690301
1413393904055760384,-3.56067,1.36421,2.16239,-0.426493,0.654417,0.468713,0.412492,-0.142197,0.607922,-0.0433249,-6.94905e-05,0.0158128,0.049559,0.0126382,0.202002,0.0717924
1413393904105760512,-3.56154,1.39973,2.17172,-0.422282,0.656664,0.468178,0.413859,-0.0660755,0.594318,-0.0558848,8.68021e-05,0.0161387,0.0500106,-0.00675128,0.204816,0.0690564
1413393904155760384,-3.56289,1.42946,2.16718,-0.416308,0.657489,0.4704,0.416076,-0.0218386,0.563575,-0.112048,-1.20526e-05,0.0160125,0.0497992,-0.00793374,0.210225,0.0675568
1413393904205760512,-3.56432,1.45538,2.15777,-0.410629,0.657149,0.47294,0.419365,0.0358839,0.519272,-0.144932,-5.97429e-05,0.0159103,0.0496838,-0.00124413,0.207516,0.0688713
1413393904255760384,-3.56068,1.48198,2.15522,-0.403588,0.657639,0.476731,0.421135,0.0942868,0.511106,-0.10768,0.000119271,0.0161883,0.0500812,-0.00631873,0.206024,0.0719019
1413393904305760512,-3.55371,1.50624,2.1516,-0.399909,0.656164,0.478841,0.424538,0.145419,0.476413,-0.0121847,5.37545e-05,0.0161168,0.0499415,-0.00721682,0.206956,0.0687542
1413393904355760384,-3.54429,1.53141,2.15336,-0.398308,0.655025,0.479429,0.427131,0.206613,0.475616,0.0737987,-1.20097e-05,0.0160124,0.0497994,-0.00802288,0.210178,0.0674366
1413393904405760512,-3.53435,1.55175,2.15876,-0.395964,0.655064,0.479216,0.429484,0.259154,0.431099,0.143621,0.000167685,0.0162119,0.0501795,-0.00615575,0.205357,0.0722466
1413393904455760384,-3.51871,1.57433,2.16844,-0.394531,0.655789,0.477393,0.43172,0.322709,0.445994,0.260738,8.70053e-05,0.0161388,0.0500111,-0.00661278,0.204784,0.0695131
1413393904505760512,-3.50146,1.59673,2.18337,-0.391333,0.657532,0.475139,0.434457,0.369802,0.450643,0.336923,5.38256e-05,0.0161169,0.0499417,-0.00713978,0.206959,0.0688817
1413393904555760384,-3.48285,1.61714,2.20097,-0.384754,0.659201,0.472776,0.440342,0.417831,0.407208,0.356413,0.000157747,0.0161947,0.0502834,-0.00698051,0.203836,0.0696671
1413393904605760512,-3.46141,1.63913,2.21971,-0.370067,0.66285,0.475026,0.445007,0.454161,0.396233,0.334178,0.000119432,0.0161885,0.0500816,-0.00607532,0.206233,0.0722839
1413393904655760384,-3.43605,1.65722,2.23354,-0.350167,0.667965,0.479319,0.448842,0.471647,0.382482,0.273493,8.70631e-05,0.0161389,0.0500112,-0.00654589,0.204768,0.0695838
1413393904705760512,-3.41995,1.6752,2.24279,-0.328962,0.676012,0.480958,0.451078,0.466623,0.385044,0.209987,0.000264491,0.016186,0.0504701,-0.00349602,0.195567,0.0820946
1413393904755760384,-3.39113,1.69612,2.25579,-0.310126,0.684442,0.481221,0.451428,0.481155,0.399658,0.175371,0.000167809,0.0162121,0.0501799,-0.00597642,0.205459,0.0723546
1413393904805760512,-3.36707,1.71868,2.26484,-0.293928,0.692536,0.478639,0.452664,0.473099,0.443167,0.143426,0.000119432,0.0161885,0.0500817,-0.00606001,0.206285,0.0722658
1413393904855760384,-3.35302,1.74209,2.26731,-0.27817,0.698675,0.474435,0.457586,0.447156,0.484178,0.125514,0.00031143,0.0163059,0.0506572,-0.00654061,0.183962,0.0953455
1413393904905760512,-3.32008,1.7651,2.27505,-0.270479,0.704058,0.466004,0.462583,0.456102,0.548907,0.0988764,0.0001578,0.0161948,0.0502838,-0.0068897,0.203719,0.0697156
1413393904955760384,-3.29855,1.79474,2.28015,-0.264415,0.706259,0.454717,0.473831,0.450598,0.602329,0.0740835,0.000167818,0.0162121,0.05018,-0.00595084,0.205452,0.0723711
1413393905005760512,-3.28527,1.82865,2.28436,-0.259496,0.705849,0.441959,0.48899,0.418494,0.649299,0.0404348,0.000320525,0.01644,0.0508183,-0.0130196,0.178067,0.0998093
1413393905055760384,-3.26357,1.85698,2.27945,-0.258215,0.706407,0.426151,0.502702,0.39361,0.689657,-0.0179943,0.000264586,0.016186,0.0504705,-0.00364284,0.195777,0.0828349
1413393905105760512,-3.23389,1.89348,2.2798,-0.256318,0.708655,0.411586,0.512548,0.383113,0.69509,-0.0933739,0.000157825,0.0161948,0.0502838,-0.006882,0.203674,0.0697228
1413393905155760384,-3.22754,1.93593,2.28286,-0.2499,0.71042,0.398212,0.523718,0.326147,0.698266,-0.162085,0.000233688,0.016598,0.050964,-0.0197956,0.170982,0.100974
1413393905205760512,-3.2163,1.96464,2.26135,-0.248199,0.715018,0.381483,0.530676,0.292747,0.708952,-0.234912,0.000311538,0.016306,0.0506577,-0.0073404,0.184398,0.0965999
1413393905255760384,-3.19685,1.99643,2.24519,-0.246958,0.720478,0.364796,0.535581,0.271839,0.706369,-0.285046,0.000264599,0.016186,0.0504707,-0.00369072,0.19586,0.0830071
1413393905305760512,-3.18323,2.04548,2.25006,-0.242896,0.725943,0.351031,0.539246,0.233307,0.707011,-0.267901,0.000141013,0.0166814,0.0510988,-0.0248772,0.167002,0.102449
1413393905355760384,-3.17692,2.07324,2.22678,-0.239261,0.73251,0.334666,0.542386,0.201501,0.706874,-0.263662,0.000320593,0.0164401,0.0508188,-0.0140914,0.178435,0.100877
1413393905405760512,-3.16991,2.1053,2.20649,-0.235399,0.738333,0.319705,0.545198,0.176148,0.690653,-0.265793,0.000311552,0.016306,0.0506578,-0.00748518,0.184518,0.09683
1413393905455760384,-3.15293,2.14812,2.21512,-0.229473,0.744154,0.307747,0.546689,0.166536,0.678393,-0.213297,9.38455e-05,0.0167258,0.0512023,-0.0278201,0.170023,0.102008
1413393905505760512,-3.14905,2.18098,2.19957,-0.222941,0.750249,0.293478,0.548903,0.14977,0.666469,-0.198734,0.000233637,0.0165983,0.0509646,-0.0208632,0.171046,0.101673
1413393905555760384,-3.14453,2.20904,2.18093,-0.219105,0.757556,0.276987,0.548981,0.123309,0.642181,-0.210704,0.000320596,0.0164401,0.050819,-0.0142154,0.178436,0.100925
1413393905605760512,-3.1313,2.24554,2.18755,-0.215734,0.766181,0.262516,0.545445,0.127401,0.612895,-0.193036,5.87085e-05,0.0168084,0.0512737,-0.0245438,0.172853,0.103381
1413393905655760384,-3.12668,2.27724,2.17635,-0.212789,0.773123,0.245196,0.544868,0.131326,0.587681,-0.162389,0.000140887,0.0166817,0.0510993,-0.025609,0.166916,0.102579
1413393905705760512,-3.12294,2.3035,2.16371,-0.209618,0.779181,0.227282,0.545234,0.137378,0.548605,-0.144697,0.000233599,0.0165983,0.0509647,-0.0209476,0.171008,0.101676
1413393905755760384,-3.1145,2.33147,2.16755,-0.206777,0.784487,0.211411,0.545094,0.156396,0.512872,-0.11796,3.10047e-05,0.0169444,0.0513805,-0.013988,0.166316,0.104341
1413393905805760512,-3.10266,2.35444,2.16068,-0.205623,0.789866,0.193394,0.544453,0.177653,0.464477,-0.0814404,9.36843e-05,0.016726,0.0512028,-0.0282237,0.170058,0.101679
1413393905855760384,-3.09526,2.37737,2.1535,-0.204462,0.797265,0.1761,0.539955,0.199457,0.406462,-0.108936,0.000140845,0.0166817,0.0510994,-0.0256325,0.166933,0.102544
1413393905905760512,-3.08577,2.39516,2.14842,-0.198591,0.806141,0.163384,0.532921,0.241688,0.376737,-0.087827,5.27705e-05,0.0170947,0.0515971,0.00857031,0.151378,0.126247
1413393905955760384,-3.06766,2.41384,2.1503,-0.194623,0.815072,0.148834,0.525003,0.309218,0.306085,-0.0351575,5.85456e-05,0.0168086,0.0512742,-0.0241582,0.17318,0.102817
1413393906005760512,-3.0514,2.42548,2.14947,-0.188089,0.821584,0.136433,0.520584,0.376835,0.236501,0.00217888,9.36356e-05,0.016726,0.0512029,-0.0282375,0.170108,0.101626
1413393906055760384,-3.03512,2.44525,2.14254,-0.171231,0.826196,0.132979,0.519996,0.430159,0.195388,0.0297356,3.10867e-05,0.0171265,0.0517473,0.0165437,0.15061,0.126465
1413393906105760512,-3.01039,2.44888,2.15367,-0.15461,0.82821,0.128985,0.522998,0.509378,0.143991,0.0675986,3.08125e-05,0.0169447,0.0513809,-0.0122946,0.166688,0.103789
1413393906155760384,-2.97824,2.45303,2.15896,-0.137695,0.827268,0.12722,0.529606,0.5641,0.117006,0.0706445,5.84791e-05,0.0168087,0.0512743,-0.0240493,0.173246,0.102766
1413393906205760512,-2.96061,2.4746,2.1486,-0.117316,0.822442,0.128818,0.541508,0.564377,0.114261,0.00864231,1.44976e-05,0.0171354,0.0519411,0.0146122,0.152419,0.124945
1413393906255760384,-2.92971,2.46568,2.15007,-0.1022,0.816634,0.127048,0.553645,0.594005,0.118406,-0.0319737,5.26653e-05,0.017095,0.0515977,0.0114343,0.152744,0.126638
1413393906305760512,-2.89334,2.47144,2.15714,-0.0914468,0.811482,0.122917,0.563938,0.642538,0.112709,-0.0673447,3.07326e-05,0.0169448,0.051381,-0.0120059,0.166744,0.103772
1413393906355760384,-2.87051,2.49286,2.13982,-0.0788673,0.806495,0.121785,0.573162,0.609307,0.133153,-0.150656,1.20493e-05,0.0171629,0.0521281,0.0112627,0.157254,0.124783
1413393906405760512,-2.83801,2.49279,2.12892,-0.0711187,0.8042,0.117323,0.578307,0.58605,0.153316,-0.213728,3.09887e-05,0.0171268,0.0517479,0.0187956,0.151772,0.126822
1413393906455760384,-2.80953,2.49273,2.12082,-0.0654208,0.801963,0.111808,0.583159,0.552988,0.152711,-0.269077,5.26399e-05,0.0170952,0.0515979,0.0118373,0.153041,0.126826
1413393906505760512,-2.78448,2.51398,2.10177,-0.0615387,0.800818,0.105644,0.586296,0.535147,0.169653,-0.34402,-1.82956e-05,0.0172049,0.0522639,0.00932962,0.162769,0.124814
1413393906555760384,-2.75904,2.52484,2.08293,-0.05933,0.799955,0.0972549,0.589147,0.516005,0.187995,-0.409797,1.44163e-05,0.0171356,0.0519418,0.0148889,0.15272,0.124947
1413393906605760512,-2.73085,2.52691,2.05978,-0.060065,0.800154,0.087138,0.590384,0.48566,0.185409,-0.467656,3.09649e-05,0.0171269,0.0517481,0.0189496,0.151848,0.126833
1413393906655760384,-2.71044,2.53437,2.0354,-0.0639337,0.800613,0.0750386,0.591016,0.469077,0.186854,-0.483957,-2.12528e-05,0.0172137,0.0523882,0.0125972,0.165071,0.122952
1413393906705760512,-2.68705,2.55304,2.01332,-0.0706922,0.801474,0.0611926,0.590675,0.448136,0.184867,-0.497049,1.19995e-05,0.0171631,0.052129,0.0100806,0.157225,0.124346
1413393906755760384,-2.66588,2.5613,1.98692,-0.0788622,0.801795,0.04879,0.59036,0.41692,0.158705,-0.487759,1.43955e-05,0.0171357,0.051942,0.0147033,0.152623,0.124836
1413393906805760512,-2.64845,2.56103,1.96097,-0.0865447,0.800744,0.0385058,0.591469,0.41365,0.123017,-0.444443,-4.09071e-05,0.0172153,0.0524406,0.0106341,0.161242,0.121656
1413393906855760384,-2.62446,2.57212,1.94321,-0.0886362,0.79938,0.0319693,0.593391,0.381143,0.0751464,-0.427099,-1.83181e-05,0.0172051,0.0522647,0.00810182,0.163025,0.124034
1413393906905760512,-2.60697,2.57609,1.92267,-0.0885747,0.796992,0.0280169,0.596802,0.349581,0.0248353,-0.435111,1.19941e-05,0.0171632,0.0521292,0.00988196,0.15725,0.12427
1413393906955760384,-2.59604,2.56844,1.89682,-0.0874539,0.79462,0.026684,0.600183,0.331719,-0.0187378,-0.424357,-2.25445e-05,0.0173368,0.0526197,0.00836,0.147131,0.124922
1413393907005760512,-2.57332,2.5655,1.8786,-0.0854585,0.793621,0.0263224,0.601806,0.316199,-0.0644337,-0.377228,-2.12538e-05,0.0172139,0.052389,0.0131285,0.165115,0.121601
1413393907055760384,-2.55786,2.56839,1.861,-0.0760415,0.793898,0.0319681,0.60243,0.276559,-0.10608,-0.3995,-1.83177e-05,0.0172051,0.0522649,0.00801343,0.163039,0.123898
1413393907105760512,-2.55458,2.54998,1.83445,-0.0655594,0.794185,0.0391297,0.60286,0.244981,-0.140608,-0.396887,-1.25415e-05,0.0174509,0.0528027,0.0118261,0.132157,0.133528
1413393907155760384,-2.53773,2.54873,1.81619,-0.0574336,0.796497,0.0440695,0.600293,0.21179,-0.161455,-0.414149,-4.09395e-05,0.0172154,0.0524412,0.0109269,0.160511,0.121217
1413393907205760512,-2.52423,2.53926,1.79851,-0.0467288,0.797784,0.050713,0.598987,0.194699,-0.175238,-0.391104,-2.12549e-05,0.0172139,0.0523892,0.0134273,0.165023,0.121321
1413393907255760384,-2.52236,2.52541,1.77614,-0.0321527,0.797619,0.0610496,0.599201,0.155295,-0.174727,-0.363051,-1.28321e-05,0.0175266,0.0529884,0.0179276,0.121489,0.143137
1413393907305760512,-2.51569,2.52254,1.76006,-0.0164667,0.798873,0.0712485,0.597038,0.120518,-0.154055,-0.356293,-2.25861e-05,0.017337,0.0526203,0.00850551,0.14629,0.127675
1413393907355760384,-2.50555,2.51769,1.74298,-0.00122725,0.798622,0.0812864,0.596317,0.111245,-0.0976783,-0.327754,-4.0961e-05,0.0172154,0.0524413,0.0107913,0.160327,0.121328
1413393907405760512,-2.50651,2.50985,1.7254,0.00831885,0.798903,0.0875632,0.594994,0.0560041,-0.0585093,-0.328816,-5.87614e-05,0.0176248,0.0531317,0.0220966,0.118892,0.150751
1413393907455760384,-2.50625,2.50524,1.71116,0.00505739,0.801621,0.0840779,0.591869,0.0214845,0.0327726,-0.258992,-1.25629e-05,0.0174511,0.0528033,0.0139051,0.132641,0.140146
1413393907505760512,-2.50208,2.51531,1.70249,-0.00249012,0.803861,0.0779557,0.589681,0.0115812,0.0957337,-0.146696,-2.2587e-05,0.017337,0.0526205,0.00861854,0.146344,0.128602
1413393907555760384,-2.5007,2.53035,1.69981,-0.0165234,0.804581,0.0693979,0.589542,-0.00941994,0.131712,-0.0592888,-0.000102657,0.0176224,0.0532733,0.0202645,0.124975,0.152791
1413393907605760512,-2.50435,2.52177,1.69361,-0.0264556,0.804491,0.0613976,0.590191,-0.0262403,0.167053,0.0041445,-1.28211e-05,0.0175269,0.0529891,0.0221613,0.123175,0.151655
1413393907655760384,-2.5071,2.53035,1.6941,-0.0346802,0.805981,0.0550936,0.58835,-0.026539,0.166892,-0.0255004,-1.25402e-05,0.0174512,0.0528035,0.0146661,0.133041,0.141471
1413393907705760512,-2.5107,2.55804,1.70236,-0.0412803,0.807881,0.0522697,0.58557,-0.0560055,0.168142,-0.0718011,-0.000134675,0.0176196,0.0534041,0.00704693,0.133242,0.146924
1413393907755760384,-2.51141,2.55032,1.6865,-0.0437788,0.809286,0.0491497,0.583715,-0.0480143,0.169748,-0.12998,-5.87676e-05,0.0176252,0.0531325,0.0258002,0.120912,0.15699
1413393907805760512,-2.5129,2.5549,1.67712,-0.0461989,0.808898,0.0467182,0.584266,-0.0533236,0.152801,-0.228692,-1.2805e-05,0.0175269,0.0529893,0.0228487,0.123473,0.152871
1413393907855760384,-2.51225,2.5765,1.672,-0.049519,0.807801,0.0465086,0.585528,-0.0647644,0.150583,-0.330762,-0.000166874,0.017683,0.0535427,-0.00811112,0.137799,0.139558
1413393907905760512,-2.51779,2.58568,1.64842,-0.0502843,0.805479,0.0444016,0.588815,-0.0775101,0.140912,-0.436854,-0.000102679,0.0176227,0.0532741,0.0198741,0.126708,0.154137
1413393907955760384,-2.52525,2.57887,1.6188,-0.0477663,0.80319,0.0450869,0.59209,-0.0943338,0.109482,-0.536371,-5.87808e-05,0.0176253,0.0531327,0.026045,0.121192,0.157416
1413393908005760512,-2.52585,2.5892,1.60142,-0.046239,0.801789,0.0480525,0.593875,-0.104962,0.106542,-0.54613,-0.000204024,0.0177255,0.0536299,-0.0181976,0.138531,0.13429
1413393908055760384,-2.53706,2.60657,1.57723,-0.0409197,0.80067,0.0497074,0.595636,-0.121072,0.104999,-0.493627,-0.000134709,0.0176198,0.0534048,0.000838557,0.133393,0.142734
1413393908105760512,-2.54045,2.60713,1.54433,-0.036866,0.801649,0.0511431,0.594461,-0.171719,0.090687,-0.487454,-0.000102701,0.0176227,0.0532742,0.0192806,0.126775,0.153683
1413393908155760384,-2.54791,2.6018,1.52802,-0.0358661,0.805167,0.0534571,0.589543,-0.190407,0.102593,-0.431357,-0.000192176,0.0177454,0.0538306,-0.0230958,0.137304,0.131528
1413393908205760512,-2.55524,2.61603,1.50917,-0.0322931,0.80741,0.0540878,0.586617,-0.193807,0.100903,-0.335487,-0.000166902,0.0176832,0.0535434,-0.0164427,0.1366,0.133476
1413393908255760384,-2.57378,2.62639,1.49462,-0.0309488,0.808069,0.0535903,0.585828,-0.223323,0.113074,-0.272359,-0.000134726,0.0176198,0.053405,-0.000496967,0.133027,0.141498
1413393908305760512,-2.58916,2.61089,1.48604,-0.0314202,0.805683,0.0554501,0.588908,-0.232964,0.115503,-0.216089,-0.000189995,0.0178934,0.053995,-0.0186025,0.133447,0.130848
1413393908355760384,-2.58979,2.6267,1.47392,-0.032364,0.800517,0.0532587,0.596061,-0.246079,0.125834,-0.177384,-0.000204067,0.0177257,0.0536305,-0.024197,0.137126,0.130096
1413393908405760512,-2.60243,2.63947,1.46265,-0.032384,0.798584,0.0521349,0.598746,-0.278366,0.133298,-0.211365,-0.000166909,0.0176833,0.0535436,-0.017435,0.136312,0.132754
1413393908455760384,-2.62541,2.63569,1.45689,-0.0334089,0.798922,0.0518977,0.598259,-0.297322,0.137394,-0.213996,-0.000189784,0.0179521,0.0540895,-0.00422776,0.125302,0.135051
1413393908505760512,-2.63295,2.64401,1.44381,-0.0341898,0.80113,0.0499915,0.595417,-0.310899,0.138297,-0.194986,-0.000192169,0.0177456,0.0538313,-0.0255365,0.136758,0.13043
1413393908555760384,-2.64826,2.65367,1.434,-0.0332249,0.803808,0.0490644,0.59193,-0.330773,0.141834,-0.18699,-0.000204086,0.0177257,0.0536307,-0.0245059,0.137057,0.129971
1413393908605760512,-2.66889,2.66141,1.42319,-0.0345255,0.806229,0.047166,0.588709,-0.349628,0.144501,-0.20962,-0.000197402,0.0179617,0.05419,0.0100391,0.116531,0.141465
1413393908655760384,-2.69404,2.65799,1.41694,-0.039267,0.809893,0.0432477,0.583662,-0.360803,0.136094,-0.197914,-0.000189961,0.0178937,0.0539957,-0.0167815,0.133813,0.131606
1413393908705760512,-2.70163,2.67174,1.40528,-0.0534548,0.812196,0.0312693,0.580088,-0.356414,0.127101,-0.178467,-0.000192157,0.0177456,0.0538315,-0.0255537,0.136763,0.130596
1413393908755760384,-2.7241,2.68541,1.3928,-0.0675296,0.811695,0.019345,0.579842,-0.365969,0.0954269,-0.152258,-0.000206784,0.0179776,0.0542897,0.0185585,0.111044,0.146929
1413393908805760512,-2.74612,2.67944,1.39232,-0.0805097,0.808999,0.00970983,0.582189,-0.357001,0.0384619,-0.0797628,-0.000189768,0.0179524,0.0540902,0.00191424,0.125859,0.138129
1413393908855760384,-2.76493,2.67365,1.39478,-0.086014,0.803733,0.00458641,0.588722,-0.337649,-0.0440851,0.0735127,-0.000189934,0.0178939,0.053996,-0.0161722,0.133857,0.131826
1413393908905760512,-2.78092,2.68743,1.39011,-0.0785929,0.798424,0.00712103,0.596902,-0.371355,-0.122407,0.13129,-0.000205636,0.0180312,0.0544084,0.0223089,0.10846,0.152335
1413393908955760384,-2.7958,2.67224,1.39972,-0.0651448,0.798223,0.0164776,0.598602,-0.357514,-0.180025,0.168173,-0.000197446,0.0179619,0.0541907,0.0172656,0.115959,0.146531
1413393909005760512,-2.81771,2.65801,1.415,-0.0522713,0.80047,0.0249646,0.596567,-0.372199,-0.207707,0.212767,-0.000189777,0.0179525,0.0540903,0.00299499,0.125946,0.138816
1413393909055760384,-2.83886,2.65828,1.41813,-0.0378589,0.802118,0.0322618,0.59509,-0.416029,-0.232742,0.243341,-0.000207206,0.0180652,0.05452,0.0209749,0.107084,0.154404
1413393909105760512,-2.85745,2.64361,1.4316,-0.0279196,0.804539,0.0379738,0.592027,-0.434389,-0.23888,0.262916,-0.00020689,0.0179777,0.0542903,0.0233616,0.109913,0.15159
1413393909155760384,-2.8775,2.62802,1.44785,-0.0205513,0.806305,0.0415796,0.589678,-0.443649,-0.222604,0.273737,-0.00019748,0.0179619,0.0541908,0.0180046,0.115796,0.147242
1413393909205760512,-2.90648,2.62167,1.45754,-0.0148247,0.806869,0.0426824,0.588999,-0.467794,-0.216571,0.245664,-0.000212356,0.0181043,0.0546397,0.0200697,0.106832,0.154703
1413393909255760384,-2.9293,2.61375,1.46838,-0.0117567,0.806222,0.0427408,0.58995,-0.484697,-0.19603,0.198482,-0.000205753,0.0180313,0.0544089,0.024019,0.107992,0.155392
1413393909305760512,-2.95105,2.60117,1.47805,-0.00852745,0.805591,0.0431998,0.590833,-0.505463,-0.178388,0.14766,-0.000206927,0.0179778,0.0542904,0.0236056,0.109817,0.151978
1413393909355760384,-2.9816,2.59406,1.48329,-0.00543314,0.805236,0.0429605,0.591371,-0.508235,-0.161218,0.0934652,-0.000235847,0.0181402,0.0547397,0.0164835,0.107304,0.153299
1413393909405760512,-3.00631,2.58789,1.48646,-0.00315981,0.805446,0.042152,0.591159,-0.530677,-0.138384,0.0326725,-0.000207294,0.0180654,0.0545206,0.0205008,0.107083,0.155541
1413393909455760384,-3.03252,2.58207,1.486,-0.00240915,0.80602,0.0407914,0.590475,-0.546881,-0.115164,-0.0185502,-0.00020578,0.0180314,0.0544091,0.0240067,0.108042,0.155593
1413393909505760512,-3.06402,2.57495,1.48694,-0.00263246,0.8067,0.0396424,0.589624,-0.563654,-0.0889521,-0.0688956,-0.000271048,0.0181658,0.054818,0.00469161,0.107772,0.150972
1413393909555760384,-3.09013,2.57042,1.4789,-0.00177483,0.808502,0.0381866,0.587251,-0.582699,-0.071685,-0.151291,-0.000212408,0.0181045,0.0546403,0.0194141,0.106914,0.154839
1413393909605760512,-3.11917,2.56914,1.46951,-0.000809017,0.812475,0.0368134,0.581832,-0.590216,-0.0530579,-0.210467,-0.000207307,0.0180655,0.0545208,0.0203594,0.10709,0.155525
1413393909655760384,-3.15031,2.56218,1.46113,-0.000241047,0.818761,0.0360976,0.572998,-0.577831,-0.0366639,-0.253819,-0.000299696,0.0182194,0.0549458,-0.00324771,0.106849,0.144208
1413393909705760512,-3.1786,2.56431,1.44384,0.00233919,0.824951,0.0337172,0.564192,-0.570034,-0.0178647,-0.294863,-0.000235899,0.0181404,0.0547403,0.015224,0.107247,0.152572
1413393909755760384,-3.20669,2.56363,1.42776,0.00477048,0.831609,0.0319418,0.554421,-0.556385,0.0134087,-0.328457,-0.000212413,0.0181045,0.0546405,0.0194087,0.106891,0.154836
1413393909805760512,-3.23127,2.56308,1.4154,0.00544597,0.837306,0.030086,0.545879,-0.500198,0.0350483,-0.350587,-0.000339331,0.0182922,0.0550223,-0.00811684,0.106956,0.136002
1413393909855760384,-3.25833,2.56768,1.39686,0.00816911,0.841832,0.0276912,0.538966,-0.461221,0.0624893,-0.385171,-0.000271102,0.0181659,0.0548185,0.00113043,0.107101,0.148871
1413393909905760512,-3.28093,2.57152,1.37102,0.010355,0.845791,0.0248755,0.532833,-0.42379,0.0848497,-0.439829,-0.000235921,0.0181404,0.0547404,0.014989,0.107258,0.152423
1413393909955760384,-3.29509,2.57211,1.35427,0.0110569,0.849408,0.0234286,0.5271,-0.355172,0.110467,-0.453799,-0.000385316,0.0183045,0.0551403,-0.00959504,0.106289,0.122003
1413393910005760512,-3.31457,2.57877,1.33246,0.0133982,0.852421,0.0211778,0.522255,-0.306136,0.137095,-0.450768,-0.000299745,0.0182196,0.0549464,-0.00659582,0.105527,0.141368
1413393910055760384,-3.33096,2.59058,1.30868,0.0151551,0.855133,0.0186153,0.517853,-0.244241,0.179839,-0.44685,-0.000271123,0.018166,0.0548187,0.000492817,0.106945,0.148482
1413393910105760512,-3.33236,2.59559,1.28833,0.0138538,0.857418,0.015564,0.514199,-0.145835,0.202364,-0.353984,-0.000400041,0.0183177,0.0553043,-0.00871636,0.106436,0.112435
1413393910155760384,-3.33991,2.60841,1.27496,0.0134793,0.860187,0.0116998,0.509666,-0.0539103,0.232823,-0.270739,-0.000339417,0.0182924,0.0550228,-0.0101108,0.105701,0.133061
1413393910205760512,-3.34339,2.61986,1.26377,0.0134831,0.861449,0.00851689,0.507593,0.0494228,0.26128,-0.178223,-0.000299752,0.0182196,0.0549466,-0.00685122,0.105327,0.141024
1413393910255760384,-3.32922,2.63296,1.25321,0.0134535,0.863089,0.0070019,0.504824,0.1547,0.276725,-0.104994,-0.000395808,0.0183391,0.0554446,-0.00775142,0.108103,0.10777
1413393910305760512,-3.3229,2.64608,1.2519,0.0134187,0.864844,0.00435173,0.501843,0.255008,0.286404,-0.037235,-0.000385442,0.0183047,0.0551408,-0.00988593,0.105186,0.118748
1413393910355760384,-3.30993,2.6637,1.25371,0.011404,0.868678,0.000155773,0.495246,0.361248,0.318354,0.0340259,-0.000339446,0.0182925,0.0550229,-0.0101925,0.105609,0.132698
1413393910405760512,-3.28125,2.67884,1.25132,0.00525272,0.872254,-0.00578083,0.488991,0.473968,0.322791,0.0826707,-0.000369305,0.0183785,0.0555896,-0.00441737,0.109375,0.102314
1413393910455760384,-3.25746,2.69286,1.2592,-0.00296643,0.874988,-0.0131344,0.483956,0.580992,0.313302,0.132533,-0.000400166,0.0183179,0.0553049,-0.00815524,0.106052,0.110017
1413393910505760512,-3.22737,2.70824,1.26864,-0.00970674,0.877395,-0.0180817,0.47933,0.696304,0.300182,0.145236,-0.000385483,0.0183047,0.055141,-0.00980782,0.105114,0.118372
1413393910555760384,-3.18381,2.72696,1.26808,-0.0144419,0.878065,-0.0203019,0.477892,0.817897,0.275922,0.101783,-0.000319947,0.0183845,0.0557132,-0.000827738,0.110941,0.100665
1413393910605760512,-3.14122,2.73737,1.27495,-0.0185747,0.877104,-0.020255,0.479513,0.915225,0.256692,0.0582494,-0.0003959,0.0183393,0.0554453,-0.0071048,0.108849,0.106553
1413393910655760384,-3.09592,2.74759,1.27823,-0.0213299,0.874123,-0.0185901,0.48488,1.00907,0.221076,0.00781623,-0.000400199,0.018318,0.0553051,-0.00806342,0.106108,0.109926
1413393910705760512,-3.04048,2.765,1.27203,-0.0252025,0.869752,-0.0179118,0.49252,1.1051,0.206058,-0.0328381,-0.000295534,0.0183617,0.0558284,-0.00028188,0.112589,0.102167
1413393910755760384,-2.98307,2.77093,1.2712,-0.029274,0.86505,-0.0157186,0.500584,1.17937,0.174472,-0.0822734,-0.000369344,0.0183787,0.0555902,-0.0032037,0.11105,0.1019
1413393910805760512,-2.92207,2.77755,1.26751,-0.0315516,0.860794,-0.0117913,0.507837,1.25178,0.149026,-0.134242,-0.000395926,0.0183393,0.0554454,-0.00704161,0.109091,0.106517
1413393910855760384,-2.85998,2.79344,1.25193,-0.0319775,0.855976,-0.00649366,0.515985,1.31484,0.141766,-0.189793,-0.000256979,0.0183859,0.055951,-0.00405509,0.116124,0.107313
1413393910905760512,-2.79072,2.79489,1.24358,-0.0331997,0.851101,1.28768e-05,0.523952,1.36602,0.1127,-0.232969,-0.000319921,0.0183847,0.0557139,0.000597529,0.112447,0.10113
1413393910955760384,-2.7208,2.79775,1.23379,-0.0337884,0.844061,0.00751691,0.535128,1.41507,0.0907999,-0.253257,-0.000369353,0.0183788,0.0555904,-0.00298858,0.111287,0.101904
1413393911005760512,-2.65756,2.81104,1.21615,-0.0346411,0.836471,0.013724,0.546742,1.43649,0.086111,-0.300742,-0.000240467,0.0184219,0.0560469,-0.0189666,0.114515,0.109369
1413393911055760384,-2.57848,2.81067,1.20027,-0.036913,0.830536,0.0212607,0.555334,1.45635,0.077597,-0.336346,-0.000295471,0.0183619,0.055829,0.0003917,0.113307,0.103149
1413393911105760512,-2.50402,2.81263,1.18362,-0.0403536,0.825495,0.0272283,0.562306,1.46715,0.0635563,-0.354763,-0.0003199,0.0183847,0.055714,0.000767359,0.112557,0.101306
1413393911155760384,-2.43571,2.8213,1.16538,-0.0429343,0.82213,0.0325488,0.566745,1.44987,0.0601625,-0.330782,-0.000252667,0.0185617,0.056144,-0.0394766,0.105621,0.102955
1413393911205760512,-2.36223,2.82312,1.14766,-0.0446592,0.818959,0.0378245,0.57086,1.45852,0.0493488,-0.344582,-0.00025688,0.0183861,0.0559516,-0.00476355,0.116628,0.109183
1413393911255760384,-2.28646,2.82221,1.13021,-0.0458795,0.817084,0.0425041,0.573115,1.44354,0.0269915,-0.367621,-0.000295448,0.0183619,0.0558291,0.000355088,0.113333,0.103249
1413393911305760512,-2.21728,2.82395,1.11519,-0.0468159,0.815362,0.0466575,0.575166,1.44728,0.0254043,-0.31584,-0.000338588,0.0186719,0.0561704,-0.0452357,0.095719,0.0980542
1413393911355760384,-2.15172,2.82829,1.10122,-0.0456254,0.809079,0.0486192,0.583905,1.41898,0.0125513,-0.291429,-0.000240394,0.018422,0.0560475,-0.0225651,0.113948,0.110931
1413393911405760512,-2.07588,2.82831,1.08187,-0.0433589,0.802727,0.0514553,0.592539,1.39927,0.0176179,-0.278768,-0.000256852,0.0183861,0.0559518,-0.00500456,0.116678,0.109475
1413393911455760384,-2.00729,2.82278,1.07801,-0.0413546,0.797266,0.0550377,0.599689,1.35864,0.0192641,-0.217661,-0.000353538,0.018721,0.056256,-0.0483102,0.0906119,0.0932675
1413393911505760512,-1.94042,2.82977,1.06511,-0.0377911,0.792222,0.0554239,0.606535,1.29917,0.0192083,-0.238205,-0.000252654,0.0185619,0.0561445,-0.0453939,0.103789,0.101627
1413393911555760384,-1.8839,2.83119,1.05113,-0.0341343,0.789145,0.0561051,0.610686,1.21721,0.0162247,-0.190034,-0.000240381,0.018422,0.0560476,-0.0232841,0.113655,0.110921
1413393911605760512,-1.82096,2.82477,1.05197,-0.0325427,0.787634,0.0579291,0.61255,1.15832,0.0339231,-0.0507413,-0.000409819,0.0187883,0.0563411,-0.0468134,0.0863084,0.0876243
1413393911655760384,-1.75771,2.83173,1.04841,-0.0303941,0.783545,0.0565653,0.618008,1.11726,0.0579788,0.0182462,-0.000338671,0.0186721,0.0561708,-0.0495154,0.0924016,0.0927761
1413393911705760512,-1.70751,2.837,1.0499,-0.0269473,0.781451,0.0549346,0.620958,1.0132,0.0556069,0.0608282,-0.000252668,0.0185619,0.0561446,-0.0462722,0.103344,0.100803
1413393911755760384,-1.66191,2.83176,1.0564,-0.0262227,0.786401,0.0546096,0.614739,0.923413,0.0742541,0.09719,-0.000464766,0.0187771,0.0563892,-0.0452085,0.0840827,0.0850217
1413393911805760512,-1.61207,2.83863,1.06452,-0.0237589,0.792883,0.0528632,0.606612,0.868105,0.103937,0.19043,-0.000353624,0.0187211,0.0562563,-0.0502291,0.0876205,0.087531
1413393911855760384,-1.56959,2.84715,1.07248,-0.0220771,0.800657,0.0505601,0.596577,0.79219,0.109581,0.260263,-0.000338722,0.0186721,0.0561708,-0.0497837,0.0917237,0.0915589
1413393911905760512,-1.53644,2.84784,1.08811,-0.028096,0.809794,0.0447978,0.584327,0.762684,0.131034,0.292174,-0.000483931,0.018826,0.0563969,-0.0424049,0.0835685,0.0843358
1413393911955760384,-1.49663,2.85552,1.10614,-0.0375307,0.820392,0.0349714,0.569496,0.762328,0.138209,0.35256,-0.000409955,0.0187885,0.0563414,-0.0461653,0.0844991,0.0837558
1413393912005760512,-1.45359,2.86363,1.12666,-0.0457939,0.832106,0.0254848,0.552134,0.80991,0.133457,0.458705,-0.00035364,0.0187211,0.0562564,-0.0501866,0.0875043,0.0871711
1413393912055760384,-1.41745,2.86867,1.14928,-0.0518582,0.843511,0.0184215,0.534285,0.84743,0.119826,0.538213,-0.000478913,0.0188251,0.0564082,-0.0402663,0.0841652,0.0849531
1413393912105760512,-1.37298,2.87253,1.17906,-0.0556635,0.851964,0.0127133,0.520478,0.909643,0.0902525,0.603092,-0.000464941,0.0187772,0.0563895,-0.043842,0.0835306,0.0837878
1413393912155760384,-1.32513,2.87778,1.2105,-0.0575345,0.859143,0.00755966,0.508434,0.980186,0.055559,0.621739,-0.000409996,0.0187885,0.0563415,-0.0458729,0.0843877,0.0834717
1413393912205760512,-1.27637,2.87965,1.23887,-0.0580316,0.864197,0.00437582,0.499777,1.05584,0.0232375,0.627182,-0.000527135,0.0188674,0.056438,-0.0379025,0.0843729,0.0849248
1413393912255760384,-1.22087,2.87892,1.27133,-0.0573262,0.867668,0.00221805,0.493823,1.1537,-0.0124574,0.630034,-0.000484115,0.0188262,0.0563971,-0.0410167,0.0837833,0.0844143
1413393912305760512,-1.15899,2.87638,1.30434,-0.0568509,0.869643,-0.000107367,0.490397,1.26062,-0.0532018,0.650418,-0.000465008,0.0187772,0.0563896,-0.0436629,0.0836033,0.0838824
1413393912355760384,-1.09765,2.87581,1.33502,-0.0553059,0.868437,-0.00165719,0.492702,1.35671,-0.0802741,0.671205,-0.00057747,0.0189638,0.0565297,-0.0317622,0.0877937,0.0869867
1413393912405760512,-1.02417,2.86922,1.37034,-0.0548899,0.864348,-0.00336509,0.499878,1.46962,-0.125419,0.71112,-0.000479057,0.0188252,0.0564083,-0.0395185,0.084443,0.0854236
1413393912455760384,-0.948378,2.86111,1.40696,-0.0537827,0.8572,-0.00428075,0.512149,1.55576,-0.166737,0.72571,-0.000484165,0.0188263,0.0563971,-0.0408859,0.0838623,0.0845048
1413393912505760512,-0.872849,2.8595,1.43832,-0.0508455,0.847716,-0.00357067,0.527996,1.59196,-0.169993,0.68901,-0.000472398,0.0190002,0.056698,-0.0242186,0.0973974,0.0935857
1413393912555760384,-0.789011,2.84301,1.47503,-0.0521655,0.840424,-0.00454141,0.539394,1.64577,-0.227372,0.643839,-0.000527296,0.0188676,0.0564381,-0.0373655,0.0847518,0.0851601
1413393912605760512,-0.705105,2.83041,1.50648,-0.0519152,0.834306,-0.00412105,0.548835,1.66375,-0.25482,0.58619,-0.000479076,0.0188253,0.0564083,-0.0394972,0.0844482,0.0854297
1413393912655760384,-0.627962,2.83254,1.52521,-0.0468302,0.827227,-0.000476185,0.559912,1.62384,-0.23316,0.500875,-0.000301791,0.0189795,0.0568818,-0.0178794,0.106033,0.1005
1413393912705760512,-0.544319,2.80653,1.5552,-0.0477302,0.822393,0.00103473,0.566913,1.65915,-0.302507,0.454245,-0.000577697,0.0189641,0.0565298,-0.0309306,0.0889328,0.0876198
1413393912755760384,-0.456149,2.78715,1.57804,-0.0465023,0.817524,0.00372334,0.574001,1.66958,-0.327888,0.392077,-0.00052734,0.0188677,0.0564381,-0.0373209,0.0847821,0.0851565
1413393912805760512,-0.383605,2.79536,1.58493,-0.0364105,0.811158,0.00786397,0.583639,1.62291,-0.293957,0.324967,-0.000187981,0.0189654,0.0569204,-0.0149304,0.10972,0.1036
1413393912855760384,-0.299683,2.76755,1.60512,-0.0351476,0.808767,0.00755283,0.58703,1.62456,-0.349787,0.271111,-0.000472518,0.0190006,0.0566982,-0.0233686,0.099742,0.0951908
1413393912905760512,-0.213517,2.73705,1.62078,-0.0324454,0.807366,0.00484641,0.589138,1.61661,-0.394931,0.197716,-0.000577781,0.0189643,0.0565299,-0.0308189,0.0891309,0.0877463
1413393912955760384,-0.14953,2.74836,1.61692,-0.0208577,0.804621,0.00135139,0.59342,1.53139,-0.345499,0.134121,-9.45187e-05,0.0189229,0.0569378,-0.0109679,0.108822,0.104191
1413393913005760512,-0.0671297,2.7244,1.62626,-0.0197477,0.80508,-0.00786654,0.592785,1.52401,-0.373766,0.0944282,-0.00030175,0.0189799,0.0568821,-0.0171794,0.1084,0.102241
1413393913055760384,0.0145904,2.69056,1.6347,-0.0213165,0.805771,-0.0200392,0.591503,1.51913,-0.422354,0.0647626,-0.000472563,0.0190008,0.0566983,-0.023264,0.100106,0.0954419
1413393913105760512,0.073985,2.69352,1.627,-0.0149096,0.802054,-0.0337634,0.59611,1.43867,-0.394334,0.00808993,-6.18197e-05,0.0189156,0.0569448,-0.0105858,0.109097,0.104859
1413393913155760384,0.151057,2.67068,1.63037,-0.0143208,0.799038,-0.0493441,0.599081,1.41792,-0.431861,-0.0124892,-0.000187837,0.0189658,0.0569206,-0.0144206,0.110996,0.104665
1413393913205760512,0.225057,2.64124,1.63106,-0.0127418,0.795883,-0.0653507,0.601779,1.38596,-0.467221,-0.0576102,-0.00030174,0.0189801,0.0568822,-0.0170798,0.108587,0.102373
1413393913255760384,0.280935,2.62779,1.62171,-0.00802506,0.791436,-0.0834943,0.605469,1.3012,-0.490965,-0.0785884,-5.40551e-05,0.0189135,0.0569454,-0.0104196,0.109053,0.105076
1413393913305760512,0.344911,2.60155,1.61614,-0.00325616,0.789483,-0.101055,0.605387,1.24824,-0.532898,-0.137374,-9.42931e-05,0.0189232,0.0569379,-0.0104034,0.10891,0.104731
1413393913355760384,0.414789,2.57083,1.61185,0.00292102,0.789925,-0.118633,0.60161,1.208,-0.576819,-0.178262,-0.000187785,0.0189659,0.0569207,-0.0143608,0.110983,0.104703
1413393913405760512,0.463791,2.54452,1.59846,0.0097322,0.786729,-0.137902,0.601619,1.13996,-0.634136,-0.169541,-5.3951e-05,0.0189135,0.0569454,-0.0103132,0.108922,0.105126
1413393913455760384,0.519846,2.51099,1.59086,0.0157914,0.783334,-0.157692,0.601059,1.0992,-0.70693,-0.122621,-6.16042e-05,0.0189158,0.0569449,-0.010248,0.108822,0.105065
1413393913505760512,0.574329,2.47296,1.58554,0.0245118,0.778453,-0.17665,0.601834,1.04049,-0.776987,-0.0798182,-9.42083e-05,0.0189233,0.0569379,-0.0103232,0.108812,0.104761
1413393913555760384,0.623321,2.43396,1.58196,0.0370818,0.771486,-0.19481,0.604552,0.971301,-0.84508,-0.0411351,-5.38915e-05,0.0189136,0.0569454,-0.0102788,0.108876,0.105138
1413393913605760512,0.670837,2.38981,1.58118,0.0513741,0.764519,-0.211162,0.606862,0.91857,-0.919439,0.0150007,-5.39008e-05,0.0189136,0.0569454,-0.0102761,0.108874,0.10514
1413393913655760384,0.71477,2.34217,1.58228,0.066863,0.756396,-0.226584,0.609962,0.840028,-0.977199,0.0606622,-6.15607e-05,0.0189158,0.0569449,-0.0102289,0.108798,0.105071
1413393913705760512,0.754451,2.29223,1.58641,0.0835828,0.748642,-0.240715,0.61205,0.759465,-1.03663,0.121564,-5.38823e-05,0.0189136,0.0569454,-0.0102765,0.108874,0.105139
1413393913755760384,0.789993,2.23915,1.59439,0.0991036,0.740122,-0.255383,0.614147,0.669507,-1.07936,0.17469,-5.38823e-05,0.0189136,0.0569454,-0.0102765,0.108874,0.105139
1413393913805760512,0.820701,2.1845,1.60386,0.113493,0.732575,-0.270132,0.614395,0.555404,-1.09805,0.18554,-5.38989e-05,0.0189136,0.0569454,-0.0102759,0.108874,0.10514
1413393913855760384,0.846569,2.12856,1.61415,0.127366,0.725603,-0.284658,0.61339,0.469762,-1.13928,0.247165,-5.38823e-05,0.0189136,0.0569454,-0.0102765,0.108874,0.105139
1413393913905760512,0.867369,2.07164,1.62618,0.139142,0.718801,-0.299924,0.611564,0.362646,-1.14266,0.255625,-5.38823e-05,0.0189136,0.0569454,-0.0102765,0.108874,0.105139
1413393913955760384,0.88285,2.01427,1.63875,0.152791,0.713427,-0.313281,0.607891,0.25666,-1.1589,0.274459,-5.38823e-05,0.0189136,0.0569454,-0.0102765,0.108874,0.105139
1413393914005760512,0.892939,1.95618,1.65353,0.171214,0.706876,-0.324024,0.604997,0.149753,-1.15851,0.29878,-5.38823e-05,0.0189136,0.0569454,-0.0102765,0.108874,0.105139
1413393914055760384,0.898073,1.89833,1.66955,0.190179,0.699607,-0.334007,0.602346,0.0514546,-1.14676,0.326924,-5.38823e-05,0.0189136,0.0569454,-0.0102765,0.108874,0.105139
1413393914105760512,0.898236,1.84127,1.68609,0.211068,0.694561,-0.343184,0.596037,-0.0440117,-1.13276,0.346405,-5.38823e-05,0.0189136,0.0569454,-0.0102765,0.108874,0.105139
1413393914155760384,0.890699,1.83781,1.68362,0.236796,0.690918,-0.349168,0.587062,-0.124556,-1.0055,0.300676,1.61589e-05,0.0189186,0.0571908,0.0123741,0.105246,0.122543
1413393914205760512,0.88643,1.73052,1.71892,0.249392,0.694259,-0.364164,0.5685,-0.183763,-1.077,0.341001,-5.38823e-05,0.0189136,0.0569454,-0.0102765,0.108874,0.105139
1413393914255760384,0.87561,1.67803,1.73602,0.264059,0.694702,-0.37687,0.552838,-0.244373,-1.02626,0.329305,-5.38823e-05,0.0189136,0.0569454,-0.0102765,0.108874,0.105139
1413393914305760512,0.85999,1.70622,1.72698,0.281772,0.692017,-0.387318,0.540095,-0.279393,-0.857726,0.333187,2.53918e-05,0.0189201,0.0572259,0.0162469,0.105629,0.125399
1413393914355760384,0.848312,1.57821,1.77275,0.286805,0.690845,-0.40508,0.525724,-0.290704,-0.974029,0.395619,-5.38823e-05,0.0189136,0.0569454,-0.0102765,0.108874,0.105139
1413393914405760512,0.833187,1.53025,1.79284,0.296199,0.686717,-0.419471,0.51452,-0.309016,-0.948316,0.404741,-5.38823e-05,0.0189136,0.0569454,-0.0102765,0.108874,0.105139
1413393914455760384,0.863564,1.55499,1.69937,0.306499,0.681401,-0.432451,0.504715,-0.260316,-0.796822,0.279088,-3.82819e-05,0.0189812,0.0572117,0.0763483,0.127941,0.115513
1413393914505760512,0.795263,1.5351,1.80486,0.31135,0.672605,-0.448451,0.499556,-0.332977,-0.753029,0.396029,1.61258e-05,0.0189187,0.0571908,0.012989,0.105439,0.122688
1413393914555760384,0.784758,1.39247,1.85607,0.310738,0.665257,-0.466446,0.493258,-0.345894,-0.907214,0.441665,-5.38823e-05,0.0189136,0.0569454,-0.0102765,0.108874,0.105139
1413393914605760512,0.820406,1.44121,1.71265,0.319766,0.656884,-0.476375,0.489204,-0.284314,-0.761348,0.281162,-0.000123785,0.0187908,0.0573281,0.0967934,0.134315,0.109135
1413393914655760384,0.745128,1.44133,1.86176,0.325771,0.644103,-0.489602,0.489178,-0.372523,-0.694094,0.407829,2.53511e-05,0.0189203,0.0572258,0.0167073,0.10576,0.125509
1413393914705760512,0.722282,1.38881,1.88744,0.328092,0.634776,-0.504285,0.484883,-0.415257,-0.717444,0.418574,1.61047e-05,0.0189189,0.0571908,0.0131141,0.105467,0.12272
1413393914755760384,0.771482,1.33795,1.75156,0.32973,0.628095,-0.517858,0.478119,-0.339602,-0.737878,0.262967,-0.000145621,0.0187599,0.0574659,0.0959719,0.139606,0.112228
1413393914805760512,0.758624,1.28944,1.80373,0.33237,0.61829,-0.532775,0.47265,-0.371831,-0.73884,0.295261,-3.83443e-05,0.0189814,0.0572117,0.0785406,0.128314,0.114544
1413393914855760384,0.65742,1.3047,1.94305,0.332882,0.607548,-0.546829,0.470162,-0.519181,-0.684398,0.402857,2.53427e-05,0.0189203,0.0572258,0.0167376,0.105764,0.125517
1413393914905760512,0.695935,1.23431,1.78967,0.339018,0.607569,-0.554262,0.456859,-0.437187,-0.74872,0.251275,-0.000178301,0.0188254,0.0575896,0.091258,0.147978,0.121794
1413393914955760384,0.690857,1.17878,1.80105,0.345573,0.604432,-0.561099,0.447672,-0.472737,-0.772,0.234239,-0.000123942,0.0187907,0.0573283,0.0990314,0.134703,0.107936
1413393915005760512,0.670847,1.13787,1.85975,0.351105,0.605203,-0.567121,0.434544,-0.492546,-0.786919,0.27843,-3.84302e-05,0.0189815,0.0572117,0.0789682,0.128412,0.114316
1413393915055760384,0.620348,1.11708,1.82484,0.355577,0.609456,-0.56795,0.423745,-0.481362,-0.799741,0.249448,-0.000190569,0.0188593,0.0577184,0.0815979,0.147451,0.132006
1413393915105760512,0.616329,1.06973,1.83582,0.358451,0.608031,-0.57238,0.417363,-0.498468,-0.834464,0.237321,-0.000145813,0.0187597,0.0574663,0.0965098,0.140203,0.111389
1413393915155760384,0.591973,1.01608,1.84684,0.360792,0.608356,-0.574807,0.411497,-0.501127,-0.870786,0.221431,-0.000124017,0.0187907,0.0573283,0.0993464,0.134822,0.10766
1413393915205760512,0.54112,0.974421,1.86076,0.363404,0.613145,-0.57281,0.40482,-0.458822,-0.891251,0.234687,-0.000211552,0.0189075,0.0578861,0.0685875,0.142519,0.144911
1413393915255760384,0.529014,0.946211,1.87072,0.36458,0.611293,-0.575679,0.402488,-0.466486,-0.918765,0.171872,-0.000178447,0.0188252,0.05759,0.0895779,0.149326,0.121409
1413393915305760512,0.51981,0.890811,1.8732,0.366163,0.60992,-0.575333,0.403625,-0.460972,-0.956363,0.103709,-0.000145874,0.0187597,0.0574664,0.0962172,0.140391,0.111288
1413393915355760384,0.475755,0.82867,1.8865,0.371225,0.616348,-0.565531,0.403089,-0.402741,-0.968094,0.0932211,-0.000229528,0.0189733,0.0580599,0.0526464,0.135212,0.150054
1413393915405760512,0.460702,0.800832,1.88696,0.375716,0.617205,-0.559502,0.40602,-0.394012,-0.997587,0.0512412,-0.000190646,0.0188592,0.0577189,0.0782183,0.148808,0.132623
1413393915455760384,0.444369,0.750489,1.88695,0.383651,0.621,-0.547261,0.409482,-0.372747,-1.01526,0.0305549,-0.000178487,0.0188252,0.0575901,0.0891459,0.14967,0.121291
1413393915505760512,0.416973,0.68005,1.90095,0.391961,0.62857,-0.5311,0.411338,-0.315806,-1.02056,0.0938549,-0.000224832,0.0190622,0.0581863,0.0405834,0.129583,0.150665
1413393915555760384,0.404889,0.63318,1.9002,0.394637,0.630605,-0.523677,0.415164,-0.273558,-1.02296,0.0760141,-0.000211552,0.0189075,0.0578866,0.0646889,0.144091,0.146388
1413393915605760512,0.394829,0.596404,1.89874,0.393893,0.630591,-0.518845,0.421903,-0.254501,-1.01561,0.0532494,-0.000190672,0.0188592,0.0577191,0.0777953,0.148897,0.132802
1413393915655760384,0.37698,0.526466,1.91577,0.392373,0.634149,-0.512043,0.426276,-0.198443,-0.985389,0.101649,-0.000221637,0.0191353,0.0582464,0.0321784,0.126297,0.15195
1413393915705760512,0.374482,0.478628,1.91687,0.390616,0.635279,-0.508747,0.430136,-0.156862,-0.965636,0.0958647,-0.000229502,0.0189733,0.0580604,0.0480761,0.136496,0.151257
1413393915755760384,0.363786,0.435329,1.91598,0.390009,0.635967,-0.505602,0.433366,-0.14043,-0.949846,0.0853671,-0.000211553,0.0189074,0.0578867,0.0641852,0.144434,0.146529
1413393915805760512,0.346869,0.380772,1.93316,0.391141,0.639924,-0.499669,0.433401,-0.0918833,-0.921652,0.104856,-0.000208596,0.0191786,0.0583544,0.033145,0.130527,0.154291
1413393915855760384,0.354206,0.339935,1.93583,0.390512,0.642784,-0.496666,0.433188,-0.0556848,-0.898996,0.105163,-0.000224821,0.0190623,0.0581869,0.0361702,0.130298,0.15048
1413393915905760512,0.355634,0.294225,1.93589,0.389674,0.644857,-0.494452,0.433394,-0.0204169,-0.876806,0.0898156,-0.000229502,0.0189733,0.0580606,0.0473824,0.136647,0.151182
1413393915955760384,0.342744,0.239241,1.94649,0.390728,0.646506,-0.491247,0.433633,0.0218334,-0.853278,0.119015,-0.000180198,0.0191565,0.0583879,0.04029,0.134946,0.161509
1413393916005760512,0.352901,0.208206,1.95494,0.392594,0.64813,-0.487259,0.434022,0.0751366,-0.833005,0.138981,-0.00022164,0.0191355,0.0582469,0.0291828,0.12658,0.15168
1413393916055760384,0.359459,0.169022,1.95867,0.394125,0.64879,-0.484305,0.434955,0.117234,-0.80713,0.142704,-0.000224828,0.0190623,0.058187,0.0357287,0.130273,0.150257
1413393916105760512,0.356929,0.113436,1.96744,0.397954,0.64896,-0.480496,0.435438,0.162172,-0.771086,0.142373,-0.000186326,0.0191407,0.0584378,0.0447314,0.133086,0.165315
1413393916155760384,0.36555,0.0874487,1.97742,0.400507,0.649618,-0.477502,0.435411,0.218332,-0.745515,0.164138,-0.000208577,0.0191788,0.0583549,0.033607,0.131504,0.155669
1413393916205760512,0.386051,0.0530259,1.9844,0.403178,0.648133,-0.476611,0.436135,0.257448,-0.709471,0.157868,-0.000221643,0.0191355,0.0582469,0.0291009,0.126663,0.151738
1413393916255760384,0.39394,0.00507661,1.99014,0.402281,0.641734,-0.481315,0.441229,0.300637,-0.642581,0.140011,-0.000236811,0.0190893,0.0584184,0.0496751,0.137349,0.169124
1413393916305760512,0.408165,-0.0224277,1.99564,0.400733,0.635592,-0.488497,0.443629,0.338747,-0.640296,0.146707,-0.000180122,0.0191567,0.0583884,0.0435794,0.136052,0.165329
1413393916355760384,0.425716,-0.0480126,2.00766,0.398201,0.629064,-0.498691,0.443871,0.367176,-0.627992,0.172519,-0.000208563,0.0191789,0.0583551,0.034088,0.13177,0.156058
1413393916405760512,0.445238,-0.0883901,2.01161,0.396701,0.621268,-0.510521,0.442744,0.379704,-0.605659,0.178658,-0.000262476,0.0189611,0.0584298,0.0550592,0.148298,0.170717
1413393916455760384,0.463174,-0.116365,2.02164,0.39842,0.61377,-0.521898,0.438372,0.389477,-0.561095,0.193035,-0.000186273,0.0191409,0.0584382,0.0480042,0.132875,0.168893
1413393916505760512,0.483947,-0.141618,2.03143,0.399971,0.605866,-0.534528,0.4327,0.397505,-0.522011,0.215273,-0.000180089,0.0191569,0.0583885,0.0441467,0.136078,0.165872
1413393916555760384,0.503854,-0.168795,2.04011,0.403159,0.595997,-0.547866,0.426723,0.39131,-0.479292,0.194562,-0.000321524,0.0188633,0.0584932,0.0570189,0.160264,0.170301
1413393916605760512,0.523605,-0.192873,2.05317,0.408625,0.587141,-0.561673,0.415709,0.395113,-0.470991,0.206815,-0.000236835,0.0190895,0.0584187,0.0517507,0.137104,0.169942
1413393916655760384,0.542235,-0.214979,2.06459,0.413069,0.577269,-0.576926,0.404092,0.414151,-0.448397,0.242656,-0.000186254,0.019141,0.0584383,0.0482383,0.132615,0.169103
1413393916705760512,0.563471,-0.239396,2.07231,-0.415499,-0.566547,0.594092,-0.391714,0.413384,-0.454234,0.236593,-0.000372696,0.0188116,0.0585335,0.0562843,0.171161,0.167609
1413393916755760384,0.584986,-0.259843,2.08639,-0.421649,-0.554535,0.609061,-0.379141,0.43055,-0.395761,0.215088,-0.000262531,0.0189609,0.05843,0.0559216,0.149006,0.169217
1413393916805760512,0.606445,-0.278349,2.0984,-0.429506,-0.540061,0.622574,-0.369135,0.420113,-0.393155,0.190618,-0.000236865,0.0190894,0.0584187,0.0518562,0.137254,0.169683
1413393916855760384,0.625237,-0.298911,2.10324,-0.438142,-0.5238,0.635711,-0.359911,0.423959,-0.418228,0.206632,-0.000388239,0.0187435,0.0585617,0.0477824,0.186496,0.15787
1413393916905760512,0.650369,-0.320438,2.11447,-0.447301,-0.50673,0.647297,-0.352354,0.440164,-0.409752,0.192086,-0.000321681,0.018863,0.0584935,0.0570214,0.161513,0.168387
1413393916955760384,0.670641,-0.339971,2.12671,-0.454604,-0.48736,0.659971,-0.346777,0.433576,-0.395004,0.198063,-0.000262575,0.0189608,0.05843,0.0559372,0.149213,0.168913
1413393917005760512,0.687902,-0.362116,2.1346,-0.460118,-0.463752,0.674033,-0.344827,0.420119,-0.410302,0.220038,-0.000439578,0.0187047,0.0585676,0.0441472,0.195776,0.155305
1413393917055760384,0.71414,-0.382581,2.14499,-0.468188,-0.44206,0.684537,-0.341748,0.422799,-0.381437,0.214585,-0.000372939,0.0188113,0.0585337,0.0557322,0.171968,0.166179
1413393917105760512,0.735035,-0.399136,2.15659,-0.475829,-0.420046,0.694859,-0.338112,0.395393,-0.351575,0.216413,-0.000321754,0.0188629,0.0584936,0.056852,0.161584,0.168243
1413393917155760384,0.745334,-0.420318,2.16829,-0.481766,-0.398887,0.706129,-0.331922,0.351227,-0.353426,0.231741,-0.000448033,0.0186882,0.05857,0.0424387,0.199585,0.153133
1413393917205760512,0.766847,-0.435213,2.17937,-0.489292,-0.379349,0.715039,-0.324664,0.332827,-0.303151,0.222218,-0.000388493,0.0187433,0.058562,0.0465479,0.186638,0.156753
1413393917255760384,0.787013,-0.449088,2.18829,-0.493853,-0.360548,0.724895,-0.317241,0.313252,-0.261772,0.20956,-0.000373033,0.0188112,0.0585338,0.0556454,0.172035,0.166091
1413393917305760512,0.791583,-0.4656,2.20185,-0.494539,-0.344056,0.737518,-0.305163,0.267177,-0.232151,0.210401,-0.000450519,0.0186809,0.0585716,0.0419619,0.20108,0.15309
1413393917355760384,0.806583,-0.475236,2.2117,-0.496453,-0.327917,0.748526,-0.292769,0.231475,-0.188085,0.193633,-0.000439847,0.0187045,0.0585678,0.0434283,0.196034,0.154705
1413393917405760512,0.820734,-0.480336,2.21868,-0.498648,-0.308964,0.759192,-0.281992,0.199411,-0.144323,0.145783,-0.000388545,0.0187432,0.058562,0.0464811,0.186666,0.1567
1413393917455760384,0.823392,-0.492385,2.22629,0.500085,0.290806,-0.770276,0.268368,0.149665,-0.130976,0.0944066,-0.000451107,0.0186801,0.0585713,0.0418767,0.201252,0.153108
1413393917505760512,0.830535,-0.497284,2.22957,0.502765,0.27211,-0.780058,0.254348,0.118504,-0.0880463,0.0406325,-0.000448221,0.0186881,0.0585701,0.0422115,0.199783,0.152966
1413393917555760384,0.838116,-0.499405,2.22973,0.504236,0.251832,-0.790077,0.241047,0.0816668,-0.0455395,-0.016152,-0.000439904,0.0187045,0.0585678,0.0434121,0.196073,0.154712
1413393917605760512,0.837816,-0.50361,2.22862,0.507307,0.233335,-0.798825,0.22377,0.0278857,-0.0292458,-0.0592818,-0.000451147,0.0186801,0.0585713,0.0418713,0.201269,0.153113
1413393917655760384,0.838026,-0.504358,2.2246,0.51066,0.215754,-0.806606,0.205091,-0.0177258,-0.00530467,-0.0963832,-0.000450629,0.0186809,0.0585716,0.0419188,0.201164,0.153089
1413393917705760512,0.836522,-0.502727,2.21856,0.516496,0.197785,-0.812297,0.185163,-0.0590054,0.0263216,-0.139007,-0.000448246,0.0186881,0.0585701,0.0422097,0.19979,0.152969
1413393917755760384,0.83247,-0.501908,2.21113,0.524844,0.178943,-0.815438,0.166069,-0.0871386,0.0513575,-0.16806,-0.00045115,0.0186801,0.0585713,0.0418713,0.20127,0.153114
1413393917805760512,0.826979,-0.498984,2.20331,0.536075,0.159792,-0.815625,0.147798,-0.121876,0.0646013,-0.148527,-0.00045115,0.0186801,0.0585713,0.0418713,0.20127,0.153114
1413393917855760384,0.820135,-0.495249,2.19588,0.546663,0.138256,-0.815157,0.132529,-0.143574,0.0872065,-0.149575,-0.000450629,0.0186809,0.0585716,0.0419188,0.201164,0.153089
1413393917905760512,0.81254,-0.490526,2.1885,0.5543,0.114973,-0.815556,0.120003,-0.165658,0.105553,-0.137907,-0.00045115,0.0186801,0.0585713,0.0418713,0.20127,0.153114
1413393917955760384,0.804372,-0.484626,2.18104,0.558487,0.0919142,-0.817296,0.108031,-0.165011,0.133106,-0.135337,-0.00045115,0.0186801,0.0585713,0.0418713,0.20127,0.153114
1413393918005760512,0.795537,-0.477394,2.17421,0.561983,0.0683704,-0.81855,0.0973421,-0.184701,0.157777,-0.132853,-0.00045115,0.0186801,0.0585713,0.0418713,0.20127,0.153114
1413393918055760384,0.786433,-0.46847,2.16787,0.564105,0.0451884,-0.819872,0.0869103,-0.189681,0.201757,-0.113583,-0.00045115,0.0186801,0.0585713,0.0418713,0.20127,0.153114
1413393918105760512,0.777342,-0.457611,2.16196,0.565233,0.0224329,-0.821084,0.0763446,-0.177032,0.232887,-0.119104,-0.00045115,0.0186801,0.0585713,0.0418713,0.20127,0.153114
1413393918155760384,0.768018,-0.444882,2.15595,0.564715,0.000521034,-0.822682,0.0655104,-0.187821,0.275897,-0.114168,-0.00045115,0.0186801,0.0585713,0.0418713,0.20127,0.153114
1413393918205760512,0.758405,-0.430036,2.15024,0.562665,-0.0228155,-0.824399,0.0570384,-0.191334,0.32116,-0.115428,-0.00045115,0.0186801,0.0585713,0.0418713,0.20127,0.153114
1413393918255760384,0.748131,-0.412774,2.14452,0.561083,-0.0433136,-0.825398,0.0450259,-0.214507,0.372761,-0.0956612,-0.00045115,0.0186801,0.0585713,0.0418713,0.20127,0.153114
1413393918305760512,0.737331,-0.392703,2.13927,0.559404,-0.0649816,-0.825617,0.0346462,-0.218863,0.428079,-0.099283,-0.00045115,0.0186801,0.0585713,0.0418713,0.20127,0.153114
1413393918355760384,0.725781,-0.369766,2.13454,0.558036,-0.0859132,-0.825031,0.0232004,-0.231061,0.482534,-0.100185,-0.00045115,0.0186801,0.0585713,0.0418713,0.20127,0.153114
1413393918405760512,0.713895,-0.34388,2.13008,0.55642,-0.106346,-0.823994,0.0110437,-0.241205,0.546759,-0.0992348,-0.00045115,0.0186801,0.0585713,0.0418713,0.20127,0.153114
1413393918455760384,0.701753,-0.314823,2.12578,0.553961,-0.126737,-0.822836,-0.00223738,-0.244307,0.613935,-0.0890581,-0.00045115,0.0186801,0.0585713,0.0418713,0.20127,0.153114
1413393918505760512,0.689087,-0.282485,2.12198,0.551695,-0.147835,-0.820692,-0.0155139,-0.265362,0.67935,-0.0847343,-0.00045115,0.0186801,0.0585713,0.0418713,0.20127,0.153114
1413393918555760384,0.675822,-0.246827,2.11859,0.54896,-0.169703,-0.817942,-0.0285287,-0.279853,0.752579,-0.049185,-0.00045115,0.0186801,0.0585713,0.0418713,0.20127,0.153114
1413393918605760512,0.66233,-0.207641,2.11606,0.548146,-0.191572,-0.81299,-0.0433843,-0.27865,0.824736,-0.0403122,-0.00045115,0.0186801,0.0585713,0.0418713,0.20127,0.153114
1413393918655760384,0.648751,-0.165059,2.11358,0.549244,-0.212514,-0.805888,-0.0609281,-0.283795,0.885044,-0.0477804,-0.00045115,0.0186801,0.0585713,0.0418713,0.20127,0.153114
1413393918705760512,0.635203,-0.119335,2.11124,0.551003,-0.235455,-0.796948,-0.0763537,-0.266711,0.947237,-0.0569807,-0.00045115,0.0186801,0.0585713,0.0418713,0.20127,0.153114
1413393918755760384,0.622627,-0.0708159,2.10822,0.550597,-0.260738,-0.787835,-0.0904108,-0.233245,0.997051,-0.0756609,-0.00045115,0.0186801,0.0585713,0.0418713,0.20127,0.153114
1413393918805760512,0.611302,-0.0193471,2.10496,0.551563,-0.287364,-0.776131,-0.104021,-0.214778,1.05814,-0.0745985,-0.00045115,0.0186801,0.0585713,0.0418713,0.20127,0.153114
1413393918855760384,0.601011,0.0354793,2.10164,0.55355,-0.315378,-0.761868,-0.11694,-0.189899,1.13115,-0.0542987,-0.00045115,0.0186801,0.0585713,0.0418713,0.20127,0.153114
1413393918905760512,0.593236,0.0931827,2.09875,0.556701,-0.34009,-0.745534,-0.136387,-0.121321,1.17625,-0.0684106,-0.00045115,0.0186801,0.0585713,0.0418713,0.20127,0.153114
1413393918955760384,0.588106,0.1534,2.09534,0.557798,-0.362652,-0.729395,-0.159147,-0.075988,1.23013,-0.0444346,-0.00045115,0.0186801,0.0585713,0.0418713,0.20127,0.153114
1413393919005760512,0.586222,0.215482,2.09204,0.556725,-0.382921,-0.713792,-0.184198,-0.0047676,1.26113,-0.0649992,-0.00045115,0.0186801,0.0585713,0.0418713,0.20127,0.153114
1413393919055760384,0.587674,0.278855,2.08891,0.553732,-0.403461,-0.697759,-0.209123,0.0610822,1.2785,-0.0638481,-0.00045115,0.0186801,0.0585713,0.0418713,0.20127,0.153114
1413393919105760512,0.59219,0.343024,2.08555,0.54862,-0.422909,-0.682491,-0.233172,0.118323,1.27967,-0.0656637,-0.00045115,0.0186801,0.0585713,0.0418713,0.20127,0.153114
1413393919155760384,0.599924,0.407024,2.08166,0.54236,-0.443504,-0.66687,-0.253839,0.190348,1.28137,-0.0811073,-0.00045115,0.0186801,0.0585713,0.0418713,0.20127,0.153114
1413393919205760512,0.610793,0.470663,2.07819,0.537754,-0.462877,-0.649145,-0.274182,0.254474,1.26252,-0.0671472,-0.00045115,0.0186801,0.0585713,0.0418713,0.20127,0.153114
1413393919255760384,0.576253,0.490003,2.09444,0.53223,-0.480311,-0.631557,-0.295242,0.253415,1.19674,-0.0412328,-0.000448272,0.0186827,0.0585739,0.0357546,0.21455,0.154931
1413393919305760512,0.642464,0.594692,2.07107,0.531371,-0.497982,-0.609624,-0.313077,0.380184,1.20675,-0.0861618,-0.00045115,0.0186801,0.0585713,0.0418713,0.20127,0.153114
1413393919355760384,0.663033,0.653772,2.06553,0.5298,-0.513536,-0.588586,-0.330392,0.443079,1.14801,-0.131829,-0.00045115,0.0186801,0.0585713,0.0418713,0.20127,0.153114
1413393919405760512,0.635727,0.49394,2.15233,0.529966,-0.525159,-0.566828,-0.349356,0.42974,0.859573,-0.107581,-0.000394565,0.018622,0.0586127,0.0215774,0.235351,0.178771
1413393919455760384,0.713397,0.762779,2.04586,0.526231,-0.544592,-0.549962,-0.352196,0.564627,1.04427,-0.254599,-0.00045115,0.0186801,0.0585713,0.0418713,0.20127,0.153114
1413393919505760512,0.743559,0.813663,2.03175,0.520563,-0.559879,-0.535946,-0.358205,0.64392,0.986901,-0.31225,-0.00045115,0.0186801,0.0585713,0.0418713,0.20127,0.153114
1413393919555760384,0.707075,0.566361,2.15038,0.515464,-0.571076,-0.522028,-0.368315,0.625071,0.632979,-0.23344,-0.000375412,0.0186092,0.0586168,0.0148475,0.240453,0.184748
1413393919605760512,0.742124,0.845633,2.02461,0.505612,-0.587467,-0.513295,-0.368466,0.718547,0.816936,-0.380915,-0.000448294,0.0186827,0.0585739,0.0356716,0.214618,0.154977
1413393919655760384,0.857795,0.948282,1.97554,-0.498756,0.598703,0.503199,0.373614,0.876586,0.820696,-0.431618,-0.00045115,0.0186801,0.0585713,0.0418713,0.20127,0.153114
1413393919705760512,0.808397,0.587154,2.11409,-0.494714,0.600275,0.493458,0.389134,0.819501,0.393735,-0.328963,-0.000381103,0.0186157,0.0586797,0.0157963,0.245905,0.190573
1413393919755760384,0.869848,0.722626,2.05766,-0.486619,0.602677,0.489747,0.400162,0.911652,0.458898,-0.373461,-0.000394574,0.0186219,0.0586128,0.0211732,0.235437,0.178981
1413393919805760512,0.914167,0.989088,1.93922,-0.47692,0.601743,0.489637,0.413169,0.984476,0.608929,-0.47758,-0.000448308,0.0186827,0.0585739,0.035657,0.21463,0.154986
1413393919855760384,0.944273,0.625626,2.0579,-0.471348,0.592717,0.48698,0.435165,0.961496,0.177813,-0.411746,-0.000368175,0.0186087,0.058702,0.0166429,0.246142,0.190807
1413393919905760512,1.00433,0.713302,2.02838,-0.461848,0.588516,0.490448,0.446997,1.00008,0.168973,-0.483635,-0.000375421,0.018609,0.0586169,0.0143854,0.240508,0.184966
1413393919955760384,1.0672,0.783528,1.96689,-0.452566,0.585365,0.495316,0.455185,1.01928,0.142287,-0.569901,-0.000394568,0.0186218,0.0586128,0.0210883,0.235438,0.179021
1413393920005760512,1.0971,0.633395,1.98317,-0.444483,0.582444,0.499876,0.461862,0.966132,-0.067993,-0.577061,-0.000369246,0.0185797,0.0588329,0.0166441,0.245559,0.1944
1413393920055760384,1.13885,0.637221,1.95474,-0.438366,0.583023,0.504722,0.461709,0.963777,-0.129406,-0.620655,-0.00038114,0.0186155,0.0586798,0.0155053,0.245945,0.190762
