#timestamp, p_RS_R_x [m], p_RS_R_y [m], p_RS_R_z [m], q_RS_w [], q_RS_x [], q_RS_y [], q_RS_z [], v_RS_R_x [m s^-1], v_RS_R_y [m s^-1], v_RS_R_z [m s^-1], b_w_RS_S_x [rad s^-1], b_w_RS_S_y [rad s^-1], b_w_RS_S_z [rad s^-1], b_a_RS_S_x [m s^-2], b_a_RS_S_y [m s^-2], b_a_RS_S_z [m s^-2]
1413393212255760384,-1.07612,0.492468,1.32994,0.606377,-0.005788,-0.795108,0.008771,-0.023601,0.121044,0.074783,0,0,0,0,0,0
1413393212305760512,-1.0757,0.493403,1.33134,0.604122,-0.00168469,-0.796853,0.00771408,0.0113349,0.0212686,0.0262384,-4.13121e-05,0.000155483,0.000423214,2.03983e-07,3.49869e-07,6.36547e-08
1413393212355760384,-1.07396,0.484101,1.33141,0.60342,0.00288152,-0.797402,-0.00503214,0.0110367,-0.0149615,0.0219583,-1.83465e-05,0.000326363,0.000815996,4.68487e-07,3.99599e-06,-2.91653e-05
1413393212405760512,-1.06804,0.481494,1.31941,0.606637,-0.00457987,-0.79496,-0.00315715,0.00284605,-0.0112903,-0.00132346,5.64307e-06,0.000412506,0.00120877,2.96791e-05,-2.01391e-05,-0.000276222
1413393212455760384,-1.05923,0.482746,1.33063,0.606984,-0.00563389,-0.794692,-0.00187781,0.0111028,-0.00251244,-0.00201747,-3.6059e-05,0.000512933,0.00161213,9.37075e-05,-0.000374432,-0.00027365
1413393212505760512,-1.05753,0.490286,1.33402,0.606457,-0.00548537,-0.795097,-0.00127209,0.0100681,-0.00113264,0.000654415,-5.08439e-05,0.000634369,0.00202151,-7.59553e-05,-0.000543707,-0.00079693
1413393212555760384,-1.05509,0.495253,1.33629,0.606048,-0.00482409,-0.795413,-0.000974386,0.00940804,-0.00263395,-0.002578,-7.79242e-05,0.000759202,0.00241122,-0.000252006,-0.00102381,-0.00160441
1413393212605760512,-1.06215,0.504979,1.35394,0.604715,-0.00181697,-0.796436,-0.00260425,0.000612023,-0.0110305,-0.00293964,-3.58207e-05,0.000886919,0.00280414,-0.000378386,-0.000584948,-0.00361671
1413393212655760384,-1.06019,0.504572,1.35113,0.605156,-0.00178926,-0.796104,-0.0016735,0.0041062,-0.0126306,-0.00524093,-5.46666e-05,0.000978003,0.00318996,-0.00024391,-0.00143021,-0.00391424
1413393212705760512,-1.06032,0.503972,1.34943,0.605398,-0.00195508,-0.795921,-0.000432066,0.0090315,-0.0115397,-0.00735763,-7.2649e-05,0.00106663,0.00356206,-0.000356739,-0.00258578,-0.00472571
1413393212755760384,-1.06301,0.503803,1.3477,0.605779,0.000162744,-0.79562,0.00451022,0.00987688,0.000180041,0.0011663,-4.27676e-05,0.00116298,0.00397068,-0.00435144,-0.0007176,-0.00582468
1413393212805760512,-1.06368,0.504078,1.34886,0.605616,0.00100938,-0.795742,0.00483155,0.00295826,-0.00688329,0.00173739,-5.05107e-05,0.00128501,0.00433024,-0.00560951,-0.000353073,-0.0104316
1413393212855760384,-1.06942,0.500761,1.3491,0.605495,0.000725716,-0.795832,0.00526257,0.00305965,0.00204106,-0.00131829,-6.24882e-05,0.0013736,0.00469856,-0.00470651,-0.00218721,-0.0119837
1413393212905760512,-1.07185,0.502332,1.34741,0.605692,-0.000110455,-0.795684,0.00495077,0.00568961,0.00364244,-0.0035292,-7.64972e-05,0.00148171,0.00503686,-0.00412291,-0.00244957,-0.0129623
1413393212955760384,-1.06906,0.499822,1.34872,0.605665,0.00024365,-0.795705,0.00489988,0.00409409,-0.00217498,-0.00202234,-8.37193e-05,0.00159812,0.00542101,-0.0063774,-0.0018056,-0.0159904
1413393213005760512,-1.06851,0.499188,1.34868,0.605836,0.000445509,-0.795573,0.00514827,0.00441514,0.00244791,-0.000499407,-8.78993e-05,0.00170375,0.00578067,-0.00774541,-0.00184354,-0.0196505
1413393213055760384,-1.06898,0.498767,1.34801,0.605815,-5.03939e-05,-0.795591,0.00491489,0.00604088,0.00231737,-0.00289879,-0.000103424,0.00180101,0.00610871,-0.00695515,-0.00250914,-0.0190516
1413393213105760512,-1.06821,0.499568,1.34881,0.605843,0.000312503,-0.795568,0.00509799,0.00369153,-0.000139272,-0.00584642,-0.000104381,0.00191114,0.00647607,-0.00900334,-0.00135656,-0.0221901
1413393213155760384,-1.06817,0.499146,1.34826,0.605864,0.000230455,-0.795552,0.00501329,0.00602684,0.00165236,-0.00670593,-0.000113186,0.00199061,0.00682484,-0.00717666,-0.00183984,-0.0225027
1413393213205760512,-1.0702,0.504698,1.34442,0.60616,0.00093246,-0.795318,0.00624958,0.00462386,0.0014935,-0.011587,-0.000120558,0.00204733,0.00716493,-0.00617551,0.00239744,-0.0289596
1413393213255760384,-1.07025,0.504146,1.34538,0.605972,0.00122584,-0.795462,0.00606692,0.00386304,-0.00265412,-0.00811671,-0.000124651,0.00215035,0.00752332,-0.00862636,0.00357252,-0.0297503
1413393213305760512,-1.07104,0.50346,1.34634,0.605868,0.00123541,-0.795541,0.00604647,0.000123549,-0.0044888,-0.00613385,-0.00013139,0.00225963,0.00786018,-0.0120976,0.00313157,-0.0317713
1413393213355760384,-1.08663,0.517549,1.33597,0.606044,0.00398871,-0.795339,0.0114716,0.00237036,0.000577841,-0.0149192,-0.000127155,0.00223467,0.00818084,-0.00913105,0.0245241,-0.0352305
1413393213405760512,-1.08639,0.517584,1.336,0.60607,0.00415306,-0.795317,0.0115556,0.00364167,0.00129819,-0.00781909,-0.000126069,0.00233941,0.00855029,-0.0147251,0.0267223,-0.0357851
1413393213455760384,-1.08696,0.517675,1.33571,0.606094,0.00414229,-0.795297,0.0116702,0.00338312,-0.000339978,-0.00847718,-0.000140977,0.00243046,0.00888689,-0.0170878,0.0271986,-0.0372109
1413393213505760512,-1.08822,0.52055,1.3349,0.606336,0.00404156,-0.795112,0.0117527,0.00730164,0.00453311,-0.00366768,-0.000152939,0.00254462,0.00922278,-0.0215421,0.0266199,-0.0375973
1413393213555760384,-1.08723,0.519363,1.33606,0.606257,0.00400937,-0.795173,0.0116584,0.00590204,0.00531824,-0.00024515,-0.000161178,0.00264809,0.00954871,-0.0247206,0.0282054,-0.0408516
1413393213605760512,-1.08613,0.517818,1.33728,0.606194,0.00411034,-0.795222,0.0115975,0.00396115,0.00426073,0.000460349,-0.000161654,0.00274578,0.00987604,-0.0264228,0.0304436,-0.0443819
1413393213655760384,-1.08555,0.517077,1.33742,0.606254,0.00412883,-0.795178,0.0115141,0.00416307,0.00102829,-0.00221382,-0.000168514,0.00283374,0.0101934,-0.025358,0.0318608,-0.0464807
1413393213705760512,-1.0857,0.517778,1.33728,0.606272,0.00412621,-0.795162,0.0116103,0.00535022,0.0017429,-0.000460217,-0.000186246,0.00293539,0.0105095,-0.0272698,0.030943,-0.0473321
1413393213755760384,-1.08526,0.516952,1.33816,0.606137,0.00430167,-0.795266,0.011538,0.00366735,0.00192875,-0.000735222,-0.00018092,0.00302795,0.0108304,-0.0286775,0.0316752,-0.0498584
1413393213805760512,-1.08522,0.516084,1.3392,0.606017,0.00453063,-0.795355,0.0115845,-0.00169243,0.000617598,-0.000496459,-0.00018481,0.00312409,0.0111456,-0.0322167,0.0338285,-0.0537597
1413393213855760384,-1.08484,0.515561,1.33925,0.606055,0.00515754,-0.795315,0.0120196,0.000811712,-0.000256533,-0.00183835,-0.000194884,0.00318885,0.011447,-0.02838,0.0334876,-0.0519967
1413393213905760512,-1.08558,0.515887,1.33863,0.606041,0.00495318,-0.79533,0.0118936,6.93813e-05,-2.1537e-07,-0.00359723,-0.000206031,0.00326483,0.0117592,-0.0282374,0.0327431,-0.0545311
1413393213955760384,-1.0856,0.516674,1.3386,0.606015,0.0049682,-0.795349,0.011945,0.00345374,0.00174846,-0.00120218,-0.000209056,0.00335429,0.0120592,-0.0284517,0.0322682,-0.052994
1413393214005760512,-1.08552,0.517371,1.33854,0.605957,0.00498166,-0.795392,0.012016,0.00567842,0.0155166,0.00136997,-0.000186403,0.00342677,0.0123465,-0.0286476,0.0330418,-0.0515899
1413393214055760384,-1.08377,0.517359,1.33795,0.606372,0.0051052,-0.795072,0.012195,0.0108421,0.0157182,-0.00326625,-0.000243693,0.00347565,0.0126552,-0.0285477,0.0323694,-0.0534462
1413393214105760512,-1.08435,0.517736,1.33858,0.606001,0.00531831,-0.795351,0.012331,0.00684409,0.00825239,0.000156966,-0.000261536,0.00358331,0.0129756,-0.0326862,0.0352681,-0.0546935
1413393214155760384,-1.08426,0.517322,1.33825,0.606204,0.00537769,-0.795197,0.0122421,0.00744902,0.000970283,-0.00338634,-0.00025335,0.00364612,0.0132545,-0.0328368,0.0385146,-0.0576002
1413393214205760512,-1.08427,0.517292,1.3389,0.606045,0.00542696,-0.795316,0.0124045,0.00410979,0.00291843,-0.00117754,-0.000257381,0.00374567,0.0135672,-0.0368517,0.0384342,-0.0583768
1413393214255760384,-1.08425,0.517358,1.33911,0.606138,0.00556671,-0.795247,0.0122075,0.00295776,0.0014875,-0.000582821,-0.000273139,0.00383517,0.0138434,-0.0389662,0.0383534,-0.0602173
1413393214305760512,-1.08466,0.516698,1.33878,0.606164,0.00533932,-0.795229,0.0121705,-0.00109996,-0.00397491,-0.00408641,-0.000270259,0.00391702,0.0141301,-0.0394533,0.0394801,-0.0665546
1413393214355760384,-1.08427,0.517011,1.33871,0.606348,0.00542967,-0.795083,0.0124839,0.00473697,0.00437522,-0.00266789,-0.000287395,0.00399334,0.0144158,-0.0388971,0.038056,-0.063661
1413393214405760512,-1.08399,0.517675,1.33851,0.606462,0.00552923,-0.794994,0.0126283,0.00781776,0.00568235,-0.00355473,-0.000296257,0.00406463,0.0146766,-0.0395864,0.0372642,-0.0655352
1413393214455760384,-1.0839,0.517712,1.33828,0.606638,0.00549679,-0.794856,0.012845,0.00945962,0.00455729,-0.00118336,-0.000294913,0.00415237,0.0149636,-0.0415176,0.0410861,-0.0669927
1413393214505760512,-1.08425,0.517679,1.33853,0.606559,0.00556509,-0.794919,0.0126433,0.00498718,0.00380845,0.00127082,-0.000301201,0.00423434,0.015242,-0.0438042,0.0413483,-0.0726213
1413393214555760384,-1.08453,0.517208,1.33901,0.606568,0.00552918,-0.79491,0.0127397,0.00183128,-0.000501708,2.62337e-05,-0.000302162,0.00431958,0.0155279,-0.0453701,0.0437914,-0.0774643
1413393214605760512,-1.08468,0.517064,1.33913,0.606538,0.00561636,-0.794935,0.0126075,-0.00116457,0.00136052,-0.000155137,-0.000304947,0.00439469,0.0158038,-0.0461191,0.0437507,-0.0791051
1413393214655760384,-1.08466,0.516766,1.33939,0.606544,0.00560513,-0.79493,0.0126151,0.000753834,-0.00284992,0.00184544,-0.000307804,0.00447598,0.0160781,-0.0469799,0.0454598,-0.0795089
1413393214705760512,-1.08501,0.516667,1.33942,0.606558,0.00556982,-0.79492,0.0125841,-0.00248265,-0.000950503,-0.000655002,-0.000308577,0.00455964,0.0163493,-0.0470628,0.0445924,-0.0803629
1413393214755760384,-1.08512,0.516711,1.33923,0.606562,0.00556431,-0.794918,0.0125215,-0.000609698,-0.0017596,-0.000882395,-0.000307673,0.00463382,0.0166113,-0.0453546,0.0448434,-0.0800877
1413393214805760512,-1.08534,0.516706,1.33908,0.606577,0.00556314,-0.794905,0.0126116,-0.00301033,-0.000532715,-0.00136201,-0.000318547,0.00470555,0.0168805,-0.0451408,0.0449464,-0.0826119
1413393214855760384,-1.08494,0.516517,1.33928,0.606585,0.00557148,-0.794901,0.012552,0.00223516,0.000328408,0.00125841,-0.000331633,0.00478588,0.0171391,-0.0461333,0.0452184,-0.0767056
1413393214905760512,-1.08489,0.516054,1.33917,0.606595,0.00535209,-0.794899,0.01221,0.00140796,-0.00293997,0.000566432,-0.000328137,0.00486855,0.0173969,-0.0453126,0.0458246,-0.079134
1413393214955760384,-1.0851,0.516581,1.33905,0.606615,0.00572739,-0.794877,0.0125016,-0.00238461,-0.00286243,0.00207799,-0.000325747,0.00493659,0.0176578,-0.0466968,0.0459418,-0.0843741
1413393215005760512,-1.08504,0.516915,1.33898,0.606678,0.00550852,-0.794834,0.0122564,-0.000767967,-5.04784e-05,0.000760766,-0.000344357,0.00501471,0.0179066,-0.0442648,0.0423627,-0.0840904
1413393215055760384,-1.08471,0.517328,1.33907,0.606519,0.00551157,-0.794962,0.0118155,0.00068968,-0.00182081,0.00166518,-0.000364159,0.00509159,0.0181716,-0.0436515,0.0406058,-0.0819742
1413393215105760512,-1.08462,0.517889,1.33902,0.606561,0.00549824,-0.794922,0.0123868,0.00172528,-0.00396107,-0.0022987,-0.000376092,0.00516537,0.0184258,-0.0463702,0.0387736,-0.0836013
1413393215155760384,-1.08495,0.517918,1.33884,0.606767,0.00568015,-0.794765,0.0122805,-0.000231617,0.000788586,-0.000203766,-0.000371029,0.00523678,0.0186731,-0.0484608,0.0403558,-0.0875333
1413393215205760512,-1.08453,0.518235,1.33916,0.606671,0.00603827,-0.794833,0.0124271,0.00107183,0.00180216,-0.000263509,-0.000374194,0.00530524,0.0189204,-0.0499947,0.0393233,-0.0863005
1413393215255760384,-1.0844,0.518337,1.33914,0.606765,0.00606844,-0.794758,0.012599,0.0026621,0.00198512,-0.000828194,-0.000385773,0.00537608,0.0191579,-0.0500866,0.0401848,-0.0864736
1413393215305760512,-1.08366,0.518887,1.33923,0.606809,0.0061243,-0.794724,0.0126261,0.00738945,0.00556071,4.24799e-06,-0.000399806,0.00544323,0.019402,-0.0490872,0.0387992,-0.0831654
1413393215355760384,-1.08381,0.519052,1.33923,0.606802,0.0062185,-0.794727,0.0127133,0.00658472,0.00511787,-0.00111298,-0.000417187,0.00551587,0.0196504,-0.0486736,0.0385331,-0.0878937
1413393215405760512,-1.0838,0.519255,1.33938,0.606629,0.00622825,-0.794856,0.012885,0.00355489,0.00699673,-0.000809326,-0.000427258,0.00557987,0.0198837,-0.0479122,0.03978,-0.0923081
1413393215455760384,-1.0842,0.517922,1.33969,0.606401,0.00632277,-0.795034,0.012606,-0.00505036,0.000360931,0.000137956,-0.000415807,0.00564877,0.0201267,-0.0478335,0.0462016,-0.0982674
1413393215505760512,-1.08455,0.516953,1.33991,0.606257,0.00604563,-0.795149,0.0124014,-0.00731116,-0.0044339,-0.000325682,-0.000415422,0.00573196,0.0203708,-0.0503646,0.049038,-0.101733
1413393215555760384,-1.08535,0.516043,1.3401,0.606129,0.0058709,-0.795253,0.0120725,-0.014133,-0.00675951,0.00169235,-0.000405863,0.00581783,0.0206176,-0.0513842,0.0501443,-0.104831
1413393215605760512,-1.08604,0.516196,1.33991,0.606172,0.00584828,-0.795223,0.0119359,-0.0105754,-0.00786129,0.0045306,-0.000400352,0.00588063,0.02086,-0.0519938,0.0519166,-0.102456
1413393215655760384,-1.08606,0.516595,1.33932,0.606109,0.00536097,-0.795272,0.0120772,-0.00310164,-0.00310393,0.00055198,-0.000403188,0.00596542,0.0210712,-0.0494497,0.0503703,-0.100284
1413393215705760512,-1.08638,0.514241,1.33725,0.605703,0.00480051,-0.795588,0.0118498,-0.00797938,-0.0153388,-0.0148429,-0.000379263,0.00601035,0.0212718,-0.046596,0.0594556,-0.112127
1413393215755760384,-1.08646,0.513498,1.33727,0.605184,0.00470868,-0.795987,0.0116244,-0.00260988,-0.00941027,-0.0149822,-0.000392216,0.00607138,0.0214859,-0.0499123,0.0559007,-0.107335
1413393215805760512,-1.08579,0.513588,1.33778,0.604595,0.0046544,-0.796439,0.0112957,0.00280567,-0.00701065,0.00273393,-0.000407867,0.00615471,0.0217321,-0.0535042,0.0489093,-0.102423
1413393215855760384,-1.08544,0.513995,1.33753,0.604287,0.00458668,-0.796673,0.0113187,-0.000711268,-0.00105379,0.001521,-0.000415868,0.00620743,0.0219563,-0.0553003,0.0461079,-0.101131
1413393215905760512,-1.08533,0.514211,1.33781,0.604102,0.00442687,-0.796815,0.0112664,-0.00259439,0.000304357,0.00273791,-0.000429907,0.0062966,0.0221772,-0.0569076,0.0424083,-0.100195
1413393215955760384,-1.08483,0.514446,1.33834,0.603928,0.00425501,-0.796946,0.0114076,0.0015145,0.00431311,0.00313668,-0.000454808,0.00637556,0.0223837,-0.0589988,0.0391219,-0.0957527
1413393216005760512,-1.08429,0.515012,1.33904,0.603909,0.00439614,-0.796969,0.0107808,0.00873474,0.00437374,0.00508943,-0.000462179,0.00645814,0.0225928,-0.0588587,0.0323199,-0.0894616
1413393216055760384,-1.08374,0.515565,1.33949,0.603867,0.00467234,-0.797006,0.0102272,0.00449645,0.00851351,0.00473482,-0.000473703,0.006541,0.0228326,-0.0610386,0.0264888,-0.0827653
1413393216105760512,-1.08438,0.515275,1.33833,0.603809,0.00440767,-0.797051,0.0103073,-0.00134402,0.00191129,-0.00949159,-0.000481999,0.0066001,0.023003,-0.0582882,0.0345346,-0.0880698
1413393216155760384,-1.08284,0.515754,1.33977,0.604024,0.00468039,-0.796885,0.010342,0.00667696,0.0124579,0.00496802,-0.000514125,0.00668735,0.0232437,-0.0661555,0.0254282,-0.0753322
1413393216205760512,-1.08345,0.515734,1.33814,0.603855,0.00462973,-0.797013,0.0104254,-0.000259764,0.00887994,-0.00362336,-0.000511942,0.00672727,0.0234368,-0.0614454,0.0367403,-0.0831462
1413393216255760384,-1.08405,0.515262,1.33602,0.603013,0.00446988,-0.797648,0.0106644,-0.0146306,0.000270912,-0.0068662,-0.000509126,0.0067592,0.0236202,-0.0554194,0.0462184,-0.0922951
1413393216305760512,-1.0848,0.514562,1.33665,0.601802,0.00430992,-0.798566,0.0104207,-0.0130059,-0.00554803,-0.00915776,-0.000524076,0.00684151,0.0238438,-0.0559306,0.0457522,-0.0909908
1413393216355760384,-1.0853,0.513437,1.33704,0.601357,0.00402878,-0.798903,0.0103801,-0.00922939,-0.00578031,-0.0171124,-0.000502705,0.00689548,0.0240523,-0.0537101,0.0522043,-0.093496
1413393216405760512,-1.08535,0.513532,1.33738,0.600724,0.00410949,-0.799379,0.0103459,-0.0106398,-0.0133695,-0.0201051,-0.000523517,0.00694688,0.0242651,-0.0563039,0.0481264,-0.0892845
1413393216455760384,-1.08528,0.513542,1.33816,0.600672,0.00449462,-0.79942,0.010054,-0.0124801,-0.00642416,0.00228116,-0.000525059,0.00702711,0.0244919,-0.0605873,0.0490441,-0.0813163
1413393216505760512,-1.08637,0.512623,1.33857,0.598884,0.00405936,-0.800769,0.00956215,-0.00733609,-0.00439972,0.00793483,-0.000509573,0.00704786,0.0246916,-0.0656624,0.0571754,-0.0793638
1413393216555760384,-1.08665,0.513092,1.33876,0.598198,0.00342445,-0.801294,0.00873391,-0.0106985,0.00056069,-0.0279393,-0.000524574,0.00713276,0.0248768,-0.0614479,0.0528658,-0.0774949
1413393216605760512,-1.08674,0.513464,1.33804,0.597801,0.00192656,-0.801593,0.00890719,-0.0122791,0.00783013,-0.0249577,-0.000516238,0.00718408,0.0250545,-0.0576547,0.0515863,-0.0753065
1413393216655760384,-1.08583,0.513937,1.33848,0.598537,0.00171043,-0.801054,0.00796078,-0.00475967,0.00146918,0.0093107,-0.000539456,0.00723637,0.0252819,-0.0550254,0.0443949,-0.0657369
1413393216705760512,-1.08569,0.514353,1.33989,0.599198,0.0020257,-0.800581,0.00523418,0.0106483,0.0126679,0.0217693,-0.000528649,0.00730275,0.0254834,-0.0567903,0.0454703,-0.0649021
1413393216755760384,-1.08416,0.515504,1.34143,0.599491,0.00230322,-0.800375,0.00226014,0.00758887,0.0157503,0.0377876,-0.000553397,0.00736326,0.0257042,-0.0601451,0.0424978,-0.0597178
1413393216805760512,-1.08343,0.51602,1.34413,0.600197,0.00271803,-0.799848,-0.000272956,0.0143495,0.00477423,0.0770949,-0.000582727,0.00739532,0.0258625,-0.0604446,0.0461506,-0.0591551
1413393216855760384,-1.08259,0.516862,1.34843,0.601094,0.00283836,-0.79917,-0.00245812,0.0214966,0.0110918,0.0804498,-0.000585004,0.00748128,0.0260379,-0.0583707,0.0430778,-0.0575554
1413393216905760512,-1.08137,0.517013,1.35413,0.602973,0.00288056,-0.797744,-0.0045852,0.0302776,-0.00327603,0.113602,-0.000613997,0.00747374,0.0262327,-0.0571267,0.0470103,-0.0571551
1413393216955760384,-1.07881,0.516512,1.36057,0.603112,0.00394817,-0.79761,-0.00776683,0.0409291,-0.00908609,0.125905,-0.000608826,0.00751847,0.0264109,-0.0545564,0.0503485,-0.0528664
1413393217005760512,-1.07599,0.516123,1.36777,0.602551,0.00405437,-0.798011,-0.00977512,0.0593397,-0.0199337,0.143148,-0.000634367,0.00761487,0.0265771,-0.0540967,0.0533888,-0.049083
1413393217055760384,-1.07296,0.514253,1.3791,0.600402,0.00422025,-0.799614,-0.0108308,0.0673849,-0.0469741,0.216639,-0.000636177,0.00767545,0.0268026,-0.0614833,0.0572954,-0.0462943
1413393217105760512,-1.06983,0.512261,1.39244,0.599246,0.0035397,-0.800478,-0.0112456,0.0829567,-0.0480167,0.270271,-0.000648699,0.00775709,0.0269671,-0.0649873,0.0542336,-0.0419773
1413393217155760384,-1.06604,0.508138,1.40767,0.597619,0.00260026,-0.801696,-0.0113884,0.088647,-0.0740427,0.279091,-0.000662085,0.00786382,0.0271559,-0.0679826,0.0578485,-0.0390036
1413393217205760512,-1.06055,0.504787,1.42314,0.596477,0.002416,-0.802546,-0.0113985,0.105172,-0.0827105,0.268929,-0.000686688,0.0079336,0.0273323,-0.0662167,0.0524789,-0.0288655
1413393217255760384,-1.05547,0.500643,1.43736,0.596326,0.00264509,-0.802637,-0.0127314,0.108986,-0.0894188,0.251419,-0.000712871,0.00797919,0.0275094,-0.0634454,0.05281,-0.0216673
1413393217305760512,-1.04702,0.4963,1.45057,0.595224,0.00313585,-0.803437,-0.0136704,0.127477,-0.0940737,0.221684,-0.000788804,0.00808687,0.0276998,-0.0649829,0.0416972,-0.00451664
1413393217355760384,-1.04028,0.491226,1.46198,0.594023,0.00314951,-0.804332,-0.0133061,0.139874,-0.107563,0.18841,-0.000823203,0.00814196,0.0278553,-0.0624093,0.0386592,0.00382103
1413393217405760512,-1.03364,0.485142,1.47208,0.592622,0.00318102,-0.805356,-0.0138002,0.15528,-0.113149,0.173457,-0.000845691,0.00820719,0.0280273,-0.0594577,0.0403232,0.0060061
1413393217455760384,-1.02718,0.478479,1.4815,0.591187,0.0031565,-0.806407,-0.0139809,0.159287,-0.138519,0.154608,-0.000897836,0.00829458,0.0281981,-0.0581256,0.0415264,0.00577602
1413393217505760512,-1.01913,0.470578,1.48926,0.590686,0.00368458,-0.806768,-0.0142313,0.162467,-0.162238,0.138807,-0.000889324,0.00836406,0.028371,-0.0561627,0.0438027,0.00662943
1413393217555760384,-1.0111,0.461158,1.49696,0.59042,0.00321617,-0.806953,-0.0148538,0.183397,-0.171339,0.118679,-0.00088487,0.00846702,0.0285863,-0.0610764,0.054248,0.00831917
1413393217605760512,-1.00339,0.450325,1.50286,0.590277,0.00358485,-0.807044,-0.0155309,0.176994,-0.210922,0.102654,-0.000886714,0.00854635,0.0287738,-0.0668293,0.0579494,0.00179211
1413393217655760384,-0.99486,0.439103,1.50689,0.590155,0.00358296,-0.807139,-0.0152077,0.180903,-0.217436,0.106241,-0.000854884,0.00860842,0.0289299,-0.0657927,0.0604596,-0.00507917
1413393217705760512,-0.984798,0.427647,1.51368,0.590217,0.00334732,-0.807085,-0.0156779,0.1896,-0.23718,0.145578,-0.000876144,0.00862914,0.0290797,-0.0614082,0.0586445,8.67863e-05
1413393217755760384,-0.974657,0.415578,1.52209,0.590469,0.00348718,-0.806906,-0.0153999,0.197634,-0.264394,0.189474,-0.000895274,0.00870634,0.0292707,-0.0604901,0.0554302,0.00229908
1413393217805760512,-0.964084,0.401907,1.53123,0.590497,0.0030658,-0.806895,-0.0150291,0.203679,-0.271099,0.216848,-0.000865299,0.00872291,0.0294085,-0.0565987,0.0570484,0.00174116
1413393217855760384,-0.95314,0.388016,1.54391,0.590328,0.00202233,-0.807029,-0.0146002,0.216014,-0.282347,0.243839,-0.000869956,0.00880322,0.0295832,-0.0566395,0.054235,0.00983551
1413393217905760512,-0.943557,0.372489,1.56068,0.590151,0.00197298,-0.807163,-0.01437,0.207707,-0.308987,0.283778,-0.000887575,0.00893413,0.0297602,-0.0579949,0.0532585,0.00779386
1413393217955760384,-0.932027,0.35723,1.57685,0.590602,0.00166049,-0.806833,-0.0143815,0.221078,-0.310235,0.307598,-0.000863766,0.00900467,0.0299263,-0.058036,0.0529868,0.0172831
1413393218005760512,-0.919416,0.341912,1.59197,0.59033,0.000513701,-0.807055,-0.0131501,0.236232,-0.325136,0.281774,-0.000905804,0.00905452,0.0300507,-0.0501195,0.050011,0.0256198
1413393218055760384,-0.906968,0.325496,1.60524,0.590708,-0.00143759,-0.806819,-0.0103149,0.24428,-0.337268,0.230394,-0.000907959,0.00911371,0.0302065,-0.0472646,0.051191,0.030425
1413393218105760512,-0.89333,0.309937,1.61645,0.590438,-0.00407758,-0.807044,-0.00686916,0.254518,-0.320165,0.20662,-0.00092213,0.00916916,0.0303581,-0.0485451,0.0466859,0.0329107
1413393218155760384,-0.879649,0.294061,1.623,0.590574,-0.00822005,-0.80694,-0.00155993,0.257593,-0.339521,0.143534,-0.000947501,0.00920888,0.0304753,-0.0356629,0.0491946,0.0280246
1413393218205760512,-0.866728,0.274964,1.62827,0.590892,-0.0119235,-0.806651,0.0042866,0.261069,-0.34268,0.0810229,-0.000926006,0.00925354,0.0305942,-0.0266692,0.0525256,0.0199785
1413393218255760384,-0.852457,0.25991,1.63162,0.590098,-0.0166238,-0.807095,0.010308,0.278332,-0.304652,0.0362348,-0.000908967,0.00931487,0.0307412,-0.0326146,0.0460578,0.018427
1413393218305760512,-0.837886,0.245082,1.63249,0.58864,-0.0201142,-0.808006,0.0149999,0.275338,-0.298869,0.00495522,-0.000973154,0.00935999,0.030958,-0.0354385,0.041334,0.0248468
1413393218355760384,-0.824339,0.230006,1.63133,0.588593,-0.0199978,-0.808038,0.0152844,0.282481,-0.275672,-0.036133,-0.000932561,0.00940067,0.0311317,-0.0365685,0.0499882,0.018871
1413393218405760512,-0.810287,0.215398,1.62968,0.589385,-0.0178558,-0.807589,0.0103082,0.284468,-0.24054,-0.0612542,-0.000879397,0.00944531,0.0313119,-0.0391347,0.0513999,0.0130962
1413393218455760384,-0.797227,0.203852,1.62653,0.589622,-0.0144842,-0.807535,0.00488781,0.281022,-0.249887,-0.0888806,-0.000907442,0.00951698,0.0315018,-0.0442032,0.054296,0.00444308
1413393218505760512,-0.781589,0.191658,1.62131,0.590375,-0.0109718,-0.807055,-0.000242815,0.294998,-0.238749,-0.0787644,-0.000873705,0.0095467,0.031657,-0.0467237,0.0620661,0.011984
1413393218555760384,-0.766462,0.179366,1.61804,0.590798,-0.00806199,-0.806758,-0.00583915,0.302865,-0.220916,-0.0721331,-0.000889271,0.00960968,0.0318052,-0.0522642,0.0589975,0.0123893
1413393218605760512,-0.751492,0.166812,1.61469,0.591857,-0.00535456,-0.80597,-0.00944743,0.305876,-0.255898,-0.0599795,-0.000917132,0.00965576,0.0319861,-0.0558259,0.060887,0.0146573
1413393218655760384,-0.736441,0.155104,1.61173,0.592581,-0.00367457,-0.805419,-0.0116222,0.318312,-0.246306,-0.0614643,-0.000882738,0.00970087,0.0321236,-0.0525208,0.0552558,0.0152046
1413393218705760512,-0.721417,0.142668,1.60955,0.592619,-0.00417254,-0.805381,-0.0121545,0.318225,-0.243773,-0.0458453,-0.000894605,0.00976434,0.0322921,-0.0561372,0.0517448,0.00736556
1413393218755760384,-0.704735,0.129396,1.60714,0.591044,-0.0030906,-0.806528,-0.0130259,0.32564,-0.272577,-0.0403649,-0.000917372,0.00980391,0.0324655,-0.0551754,0.0468451,0.0122263
1413393218805760512,-0.688613,0.116871,1.6036,0.586978,-0.00382187,-0.809509,-0.0117324,0.338104,-0.264238,-0.0429012,-0.000890129,0.00986793,0.0325624,-0.0498256,0.047351,0.00972932
1413393218855760384,-0.673347,0.0969961,1.60286,0.579972,-0.00763548,-0.814552,-0.00890333,0.321916,-0.273375,-0.0335811,-0.000843128,0.009956,0.0327212,-0.0539128,0.0467949,-0.000752783
1413393218905760512,-0.658172,0.0816815,1.60271,0.572709,-0.00990876,-0.819679,-0.00576777,0.304508,-0.291193,-0.030225,-0.000856408,0.0100453,0.0328818,-0.0548885,0.0399484,0.000220561
1413393218955760384,-0.64204,0.0700343,1.60067,0.566866,-0.0116488,-0.823722,-0.00323959,0.294006,-0.258975,-0.00520048,-0.000835621,0.0100581,0.0330229,-0.0533045,0.0285561,0.00526513
1413393219005760512,-0.628248,0.0585271,1.60084,0.562929,-0.0135887,-0.826392,-0.00183232,0.263041,-0.242857,0.0192277,-0.0008575,0.0101238,0.0331685,-0.0590133,0.0206675,0.00189728
1413393219055760384,-0.616772,0.0432925,1.5987,0.561089,-0.0147897,-0.827624,-0.000383055,0.218247,-0.245191,0.0273944,-0.00083957,0.0101394,0.033309,-0.0512293,0.0139944,-0.0094493
1413393219105760512,-0.610954,0.0218033,1.60051,0.561271,-0.0147076,-0.8275,-0.00161642,0.169847,-0.229279,0.0450329,-0.000750017,0.0102012,0.0334566,-0.0466656,0.002467,-0.0218109
1413393219155760384,-0.601433,0.00958684,1.603,0.562374,-0.0151513,-0.826744,-0.000960634,0.154083,-0.221596,0.0561052,-0.000778592,0.0102383,0.0335761,-0.044844,0.00443964,0.000231947
1413393219205760512,-0.593209,-0.00298424,1.60763,0.563181,-0.0146855,-0.826204,-0.000401875,0.137811,-0.21956,0.0766761,-0.000790201,0.010258,0.0337458,-0.0444636,0.00482008,0.015746
1413393219255760384,-0.585908,-0.0139319,1.61238,0.564762,-0.013977,-0.825136,3.16059e-05,0.120509,-0.205567,0.100417,-0.000798776,0.0103004,0.033875,-0.0430176,0.00452669,0.0234112
1413393219305760512,-0.579612,-0.0240388,1.6184,0.565988,-0.0134637,-0.824303,0.000520735,0.0992839,-0.18576,0.109754,-0.000799475,0.0103177,0.0340318,-0.0412792,0.00507143,0.0318815
1413393219355760384,-0.574989,-0.0322584,1.62544,0.56617,-0.0129265,-0.824186,0.00137076,0.0660064,-0.179188,0.125722,-0.000821495,0.0103578,0.0341826,-0.0474346,0.00632422,0.0312775
1413393219405760512,-0.57433,-0.042231,1.63292,0.566656,-0.0134016,-0.82384,0.00302171,0.0331893,-0.166561,0.123616,-0.000808127,0.0104238,0.0343193,-0.0515818,0.0134211,0.0206125
1413393219455760384,-0.573478,-0.049942,1.63694,0.56791,-0.0132876,-0.822978,0.00318975,-0.000882774,-0.146575,0.0743847,-0.000805357,0.0104445,0.0344492,-0.0448963,0.0150444,0.016728
1413393219505760512,-0.574041,-0.0574344,1.63723,0.56915,-0.0130359,-0.822124,0.00321787,-0.030486,-0.137045,0.0242423,-0.000808703,0.0104893,0.0345724,-0.0383086,0.0142322,0.00605036
1413393219555760384,-0.574448,-0.0653286,1.63672,0.571109,-0.0128826,-0.820767,0.00332858,-0.0504842,-0.126053,-0.0165748,-0.000777188,0.0104873,0.0346916,-0.0287821,0.0186757,0.00545735
1413393219605760512,-0.575985,-0.0735893,1.63518,0.572899,-0.0128686,-0.819521,0.00269608,-0.0577075,-0.120852,-0.020354,-0.000741829,0.0105212,0.0348176,-0.0288176,0.0274153,0.00719365
1413393219655760384,-0.579509,-0.0813928,1.63247,0.575471,-0.0131757,-0.817712,0.00274399,-0.0665015,-0.115365,0.00583793,-0.000706497,0.0105415,0.0349132,-0.0255652,0.0260046,0.00632384
1413393219705760512,-0.583554,-0.0911963,1.63228,0.578659,-0.0129439,-0.815466,0.00141686,-0.0865743,-0.104807,0.0585125,-0.000620593,0.0105413,0.0350577,-0.0263273,0.0289339,-0.00503826
1413393219755760384,-0.589458,-0.0985904,1.63497,0.581938,-0.0123061,-0.81314,-2.0766e-05,-0.101067,-0.0933624,0.134194,-0.000598565,0.0105858,0.0351809,-0.0334467,0.0261431,-0.00053138
1413393219805760512,-0.594808,-0.106231,1.64026,0.585309,-0.011044,-0.810731,-0.00275273,-0.0820295,-0.0932769,0.185095,-0.00055774,0.010589,0.0352722,-0.0375144,0.0377526,-0.00432771
1413393219855760384,-0.600465,-0.113023,1.64972,0.586813,-0.0113718,-0.809634,-0.00369032,-0.0703448,-0.0852894,0.293307,-0.000517702,0.0105813,0.0353637,-0.0416159,0.0422436,-0.00828971
1413393219905760512,-0.603822,-0.119786,1.66466,0.588259,-0.0107419,-0.808584,-0.005294,-0.0663729,-0.0859301,0.325184,-0.000487787,0.0106351,0.0355025,-0.0554623,0.0436616,-0.00757232
1413393219955760384,-0.606623,-0.125104,1.68042,0.589761,-0.00987114,-0.807488,-0.00702105,-0.0668586,-0.0727746,0.329053,-0.000473696,0.0106552,0.0355944,-0.0619726,0.039144,-0.0103949
1413393220005760512,-0.560584,-0.151935,1.67298,0.585638,0.00165444,-0.81048,-0.0121348,-0.0478654,-0.0720018,0.29633,-0.000775161,0.0109743,0.0358958,-0.0268805,-0.171517,0.102418
1413393220055760384,-0.568457,-0.157508,1.69542,0.586393,0.00323954,-0.809907,-0.0135851,-0.028528,-0.0755659,0.235344,-0.00081068,0.0110489,0.0360541,-0.017137,-0.192382,0.106039
1413393220105760512,-0.570462,-0.163706,1.70228,0.587155,0.00320171,-0.809346,-0.0140361,-0.0313711,-0.0703456,0.203402,-0.000810466,0.0110668,0.0361711,-0.011338,-0.196459,0.0934181
1413393220155760384,-0.572131,-0.172327,1.7084,0.587536,0.00357091,-0.809053,-0.0149338,-0.0316195,-0.0820305,0.189845,-0.000831263,0.0111059,0.0363094,-0.0177962,-0.196075,0.0867067
1413393220205760512,-0.57124,-0.176167,1.7186,0.588153,0.00423272,-0.808585,-0.0157874,-0.016651,-0.0874847,0.216157,-0.000837397,0.0111595,0.0364237,-0.0145137,-0.196897,0.0997999
1413393220255760384,-0.574058,-0.183533,1.73123,0.588463,0.00387811,-0.80836,-0.0158565,-0.0179174,-0.0774154,0.2249,-0.000842045,0.0111931,0.0365614,-0.021682,-0.20047,0.0973264
1413393220305760512,-0.574036,-0.189299,1.74219,0.588785,0.00468196,-0.808092,-0.0172467,-0.00635687,-0.103902,0.234128,-0.000866737,0.01124,0.0366994,-0.0228601,-0.194663,0.100239
1413393220355760384,-0.573094,-0.196292,1.75296,0.589133,0.00449725,-0.807843,-0.0171208,-0.0110182,-0.113272,0.233984,-0.000843178,0.0112989,0.0368167,-0.0201696,-0.18937,0.0895623
1413393220405760512,-0.572879,-0.201681,1.76488,0.588987,0.00416394,-0.807946,-0.0173506,-0.00628786,-0.110112,0.24744,-0.000845713,0.0113298,0.0369652,-0.018712,-0.189752,0.0875817
1413393220455760384,-0.571441,-0.206596,1.7768,0.588236,0.00418351,-0.808488,-0.0175952,0.010747,-0.123578,0.235249,-0.000865983,0.0113779,0.0370959,-0.0119835,-0.19706,0.0899455
1413393220505760512,-0.570494,-0.212051,1.78884,0.586298,0.00395427,-0.809903,-0.0172272,0.0167815,-0.120557,0.215672,-0.000877662,0.0114249,0.0371991,-0.00766151,-0.203598,0.093904
1413393220555760384,-0.569294,-0.217999,1.79958,0.584487,0.00313628,-0.811218,-0.0170672,0.0277004,-0.116535,0.172434,-0.000864498,0.0114764,0.0373422,-0.00797296,-0.201684,0.0971411
1413393220605760512,-0.566981,-0.224907,1.80894,0.583572,0.00284532,-0.811878,-0.017022,0.0372932,-0.131523,0.110905,-0.000902954,0.0114947,0.0374908,-0.0052515,-0.197461,0.116838
1413393220655760384,-0.564263,-0.231044,1.81419,0.58418,0.00314381,-0.811445,-0.0167547,0.0438928,-0.134314,0.048505,-0.000910863,0.0115254,0.0375952,-0.00314002,-0.196411,0.126679
1413393220705760512,-0.561853,-0.236255,1.81739,0.584668,0.00216439,-0.811111,-0.0160389,0.0540196,-0.109617,-0.00296067,-0.000902592,0.0115592,0.0377076,-0.00996891,-0.201773,0.127797
1413393220755760384,-0.558899,-0.242879,1.81747,0.584216,0.000357361,-0.811487,-0.0134677,0.0497664,-0.134285,-0.0493444,-0.000964679,0.011627,0.0378341,-0.0186002,-0.198836,0.136303
1413393220805760512,-0.556921,-0.246099,1.81681,0.581951,-0.00183071,-0.813165,-0.00969436,0.0674503,-0.117834,-0.0374016,-0.000942898,0.0116477,0.0379537,-0.0246335,-0.208138,0.149222
1413393220855760384,-0.554874,-0.25056,1.81892,0.580221,-0.00530154,-0.814421,-0.00590087,0.0574557,-0.0803696,0.0196153,-0.000958757,0.0117227,0.0380824,-0.0378547,-0.21458,0.138174
1413393220905760512,-0.552463,-0.256388,1.82349,0.578989,-0.00683591,-0.815299,-0.00369612,0.0647267,-0.11221,0.0808771,-0.000991029,0.0117953,0.0382237,-0.0486934,-0.20232,0.144595
1413393220955760384,-0.549946,-0.260515,1.83175,0.577542,-0.0074593,-0.816323,-0.00260301,0.0532489,-0.0863373,0.193986,-0.000952881,0.0118621,0.0383618,-0.0564572,-0.20104,0.147082
1413393221005760512,-0.547697,-0.265141,1.84259,0.577993,-0.00833916,-0.815989,-0.00417336,0.0471461,-0.0535922,0.225504,-0.000938413,0.0118943,0.0384797,-0.0618331,-0.197244,0.149149
1413393221055760384,-0.546451,-0.267104,1.85697,0.57716,-0.00847377,-0.816573,-0.00489591,0.0325135,-0.0599257,0.262072,-0.000978176,0.0119763,0.0385985,-0.0714344,-0.201922,0.140952
1413393221105760512,-0.546627,-0.268683,1.87184,0.575765,-0.008288,-0.817556,-0.00533729,0.0129381,-0.0340498,0.276573,-0.000977386,0.0120405,0.038716,-0.0742159,-0.206324,0.132286
1413393221155760384,-0.544631,-0.269316,1.88839,0.57511,-0.00872819,-0.818004,-0.00650461,0.0272352,-0.00113485,0.297121,-0.0010064,0.0120873,0.0388087,-0.0709672,-0.215924,0.147777
1413393221205760512,-0.545449,-0.26782,1.90577,0.573211,-0.00805958,-0.819332,-0.00774475,-0.000171332,-0.00885149,0.306058,-0.00107509,0.0121781,0.0389494,-0.0743548,-0.211772,0.142148
1413393221255760384,-0.547331,-0.265547,1.92392,0.571493,-0.0076595,-0.820534,-0.00784314,-0.0196469,0.0151502,0.299609,-0.00110204,0.0122479,0.0390852,-0.0717927,-0.208016,0.134265
1413393221305760512,-0.549023,-0.262795,1.94154,0.569079,-0.00662284,-0.822193,-0.0102158,-0.0299377,0.0295013,0.289142,-0.0011469,0.0123577,0.039201,-0.0711427,-0.193953,0.142303
1413393221355760384,-0.551367,-0.262313,1.96163,0.56699,-0.0063783,-0.823631,-0.0107433,-0.0383309,0.00640476,0.326882,-0.00119979,0.0123916,0.0393319,-0.0657672,-0.179575,0.162422
1413393221405760512,-0.549769,-0.263101,1.97831,0.565375,-0.00554435,-0.824727,-0.0121017,-0.053018,-0.0021481,0.321868,-0.00117134,0.0124534,0.0394188,-0.0551883,-0.156878,0.164622
1413393221455760384,-0.549069,-0.26597,1.99588,0.564663,-0.00442678,-0.825175,-0.0149527,-0.0641878,-0.00397218,0.293063,-0.00114493,0.0125193,0.0395382,-0.0427442,-0.145676,0.169865
1413393221505760512,-0.551379,-0.263554,2.01046,0.56368,-0.00333211,-0.825831,-0.0160245,-0.0744655,-0.000532018,0.229523,-0.00118543,0.0125706,0.0396616,-0.0400658,-0.156578,0.176483
1413393221555760384,-0.554883,-0.261255,2.02194,0.562672,-0.00120748,-0.826469,-0.0186835,-0.0870357,0.0164644,0.17919,-0.00119545,0.0126171,0.0397672,-0.0372657,-0.169246,0.179342
1413393221605760512,-0.559522,-0.259284,2.03196,0.562525,0.000325719,-0.826522,-0.0206509,-0.109293,0.0219159,0.166267,-0.00121358,0.0126678,0.039899,-0.0373245,-0.177813,0.19073
1413393221655760384,-0.564977,-0.258789,2.04078,0.5629,0.00174892,-0.826236,-0.0218065,-0.126436,0.00347384,0.169435,-0.00122717,0.0127037,0.0400105,-0.0324163,-0.181563,0.195066
1413393221705760512,-0.571645,-0.257861,2.05019,0.565772,0.00270323,-0.824257,-0.0222532,-0.134118,0.00993854,0.181333,-0.00122138,0.0127691,0.040121,-0.0273862,-0.184669,0.199387
1413393221755760384,-0.578727,-0.256953,2.06029,0.569124,0.00272359,-0.821966,-0.0215054,-0.139261,0.000338613,0.175437,-0.00124885,0.0128317,0.0402443,-0.0220269,-0.184973,0.206714
1413393221805760512,-0.584456,-0.257072,2.06957,0.572255,0.00377216,-0.819805,-0.0207368,-0.132686,-0.0194003,0.178824,-0.00126947,0.0128628,0.04036,-0.0139701,-0.185121,0.215649
1413393221855760384,-0.590886,-0.257379,2.07789,0.574245,0.00461303,-0.818403,-0.0209372,-0.128479,-0.00336745,0.165273,-0.00124715,0.0129046,0.0404563,-0.00364708,-0.186505,0.216507
1413393221905760512,-0.597618,-0.25641,2.08762,0.575249,0.00440883,-0.817731,-0.0196518,-0.135153,-0.0197906,0.151938,-0.00130678,0.0129761,0.0405487,-0.000309775,-0.188356,0.211805
1413393221955760384,-0.60496,-0.256417,2.09529,0.57668,0.00451202,-0.816766,-0.0176812,-0.133722,-0.018899,0.12989,-0.00129961,0.01301,0.0406548,0.00307985,-0.189966,0.211634
1413393222005760512,-0.61167,-0.257971,2.10156,0.576483,0.00458576,-0.816914,-0.0172994,-0.131016,-0.0080223,0.0816815,-0.00128056,0.0130559,0.0407646,0.00395627,-0.184246,0.212913
1413393222055760384,-0.619683,-0.26092,2.10486,0.576859,0.00463331,-0.816658,-0.0167868,-0.13089,-0.0302578,0.0230928,-0.00129762,0.013127,0.0408842,0.00609728,-0.18151,0.213839
1413393222105760512,-0.626539,-0.26438,2.10555,0.577232,0.00486571,-0.816418,-0.015553,-0.138121,-0.0460431,-0.0397626,-0.00125441,0.0131945,0.0410007,0.00975976,-0.176129,0.21723
1413393222155760384,-0.632716,-0.267127,2.10162,0.577185,0.00546969,-0.816447,-0.0155988,-0.128081,-0.0365767,-0.0982691,-0.00122308,0.0132574,0.041107,0.0168177,-0.173325,0.227355
1413393222205760512,-0.637422,-0.26896,2.09576,0.576977,0.00594075,-0.816594,-0.0153701,-0.111843,-0.0376117,-0.157664,-0.00123929,0.0133018,0.0412029,0.0196077,-0.18142,0.238414
1413393222255760384,-0.641272,-0.270501,2.08685,0.575792,0.00642362,-0.817445,-0.0143359,-0.0959757,-0.0409748,-0.209772,-0.00126109,0.013339,0.0413111,0.0219999,-0.186625,0.246913
1413393222305760512,-0.643512,-0.270899,2.07453,0.573543,0.00709305,-0.81902,-0.0142732,-0.0861091,-0.0107471,-0.247357,-0.00126374,0.0133562,0.0414171,0.030378,-0.199484,0.250621
1413393222355760384,-0.647761,-0.273244,2.0614,0.569465,0.00717508,-0.821857,-0.014474,-0.0876529,-0.0266478,-0.252362,-0.00126958,0.0133967,0.0415319,0.0358605,-0.198125,0.251126
1413393222405760512,-0.652073,-0.273793,2.05135,0.565059,0.00761647,-0.824904,-0.0135769,-0.0972698,-0.0275455,-0.225162,-0.00128432,0.0134436,0.0416478,0.0268323,-0.207732,0.252838
1413393222455760384,-0.657201,-0.274898,2.04157,0.561652,0.00883679,-0.827192,-0.0149361,-0.107677,-0.016265,-0.194022,-0.00127039,0.0135002,0.0417497,0.0220426,-0.210675,0.25277
1413393222505760512,-0.667889,-0.274256,2.02499,0.556779,0.00538167,-0.83052,-0.0143216,-0.126753,-0.05,-0.150698,-0.00120455,0.0137659,0.041886,0.0262635,-0.159119,0.29727
1413393222555760384,-0.676117,-0.278243,2.01844,0.555546,0.00412021,-0.831392,-0.0118496,-0.129488,-0.0574866,-0.0960171,-0.00117326,0.013804,0.0419793,0.036956,-0.161616,0.300225
1413393222605760512,-0.658855,-0.308315,1.9088,0.559693,-0.00345775,-0.828636,-0.009715,-0.170179,-0.0743253,-0.094032,-0.000854703,0.0133838,0.041846,0.0174076,-0.0339199,0.198835
1413393222655760384,-0.657345,-0.28679,1.94723,0.564413,-0.0122085,-0.825386,-0.00523314,-0.15864,-0.0482377,-0.0808351,-0.000636135,0.0128598,0.0415458,0.0341886,0.0466861,0.138585
1413393222705760512,-0.689349,-0.284508,1.96189,0.564333,-0.0104635,-0.825455,-0.00656089,-0.205907,-0.0644631,-0.0130225,-0.000599557,0.0129442,0.0417039,0.00575135,0.0621773,0.117739
1413393222755760384,-0.701105,-0.281541,1.96826,0.562558,-0.0108602,-0.826671,-0.00513862,-0.240164,-0.0532338,0.037549,-0.000598576,0.0130166,0.0418141,-0.013896,0.0579,0.113924
1413393222805760512,-0.716545,-0.280945,1.97588,0.560546,-0.0107809,-0.828041,-0.004547,-0.275755,-0.0542644,0.095308,-0.000587775,0.0130749,0.0419389,-0.0247656,0.0591511,0.107691
1413393222855760384,-0.736473,-0.284587,1.98349,0.558433,-0.010806,-0.829471,-0.00393228,-0.298245,-0.0631971,0.120677,-0.000565443,0.0131297,0.0419988,-0.0243931,0.0700171,0.102509
1413393222905760512,-0.752287,-0.28696,1.99193,0.557383,-0.010981,-0.83018,-0.00220742,-0.322791,-0.0605246,0.164468,-0.000557648,0.0131452,0.0421001,-0.0289432,0.074801,0.106072
1413393222955760384,-0.766626,-0.289339,2.00233,0.555257,-0.00978594,-0.83162,-0.00174147,-0.350412,-0.0540319,0.221598,-0.000542724,0.0132302,0.0422313,-0.0376818,0.0658845,0.118404
1413393223005760512,-0.778319,-0.291977,2.01555,0.556035,-0.00781466,-0.83112,-0.00209362,-0.34758,-0.0353171,0.241489,-0.000574565,0.0132872,0.0423342,-0.0395307,0.0504679,0.141042
1413393223055760384,-0.797101,-0.294474,2.03044,0.557919,-0.00687548,-0.829866,-0.00118914,-0.37346,-0.0425577,0.263506,-0.000579693,0.0133704,0.0424327,-0.0405972,0.0583246,0.143596
1413393223105760512,-0.817741,-0.295361,2.04735,0.559018,-0.00593477,-0.829134,-0.000522123,-0.412269,-0.0273977,0.277265,-0.000582883,0.0134679,0.0425621,-0.0561917,0.0509403,0.134644
1413393223155760384,-0.841656,-0.297822,2.05996,0.56011,-0.00443726,-0.828405,-0.00186154,-0.443723,-0.0136005,0.272567,-0.000574464,0.0135565,0.0426548,-0.0486255,0.0315065,0.129192
1413393223205760512,-0.863528,-0.29985,2.07349,0.561704,-0.0022542,-0.827329,-0.00324212,-0.454801,-0.0289755,0.275875,-0.000578789,0.01358,0.0427263,-0.0422691,0.0419745,0.135246
1413393223255760384,-0.887604,-0.302965,2.08578,0.562419,-0.000995098,-0.82684,-0.00454596,-0.479004,-0.0281882,0.232833,-0.00055283,0.0136636,0.0428209,-0.0393643,0.0500506,0.125566
1413393223305760512,-0.912696,-0.305256,2.09715,0.563745,-0.000671945,-0.825937,-0.00431999,-0.496144,-0.0446067,0.197087,-0.000568628,0.0137289,0.0429203,-0.0368558,0.0520747,0.126692
1413393223355760384,-0.936906,-0.308997,2.10406,0.564729,2.40786e-05,-0.825261,-0.00514948,-0.501625,-0.0543814,0.109656,-0.00053991,0.0137665,0.0429956,-0.0282383,0.0561339,0.135595
1413393223405760512,-0.961072,-0.311989,2.10669,0.566359,0.000476362,-0.824141,-0.00544284,-0.504831,-0.060301,0.00366775,-0.000540509,0.0137862,0.043096,-0.0217699,0.0593269,0.135877
1413393223455760384,-0.986148,-0.315496,2.1022,0.568509,0.00116942,-0.82265,-0.0066411,-0.515404,-0.0655169,-0.122443,-0.000524007,0.0137965,0.0431976,-0.0138659,0.0619449,0.131064
1413393223505760512,-1.02507,-0.321632,2.10099,0.568945,-0.000955808,-0.822338,-0.007785,-0.539402,-0.0854821,-0.206163,-0.000431154,0.0140954,0.0432956,-0.0208382,0.106418,0.147669
1413393223555760384,-1.056,-0.323481,2.08817,0.571301,-0.00216882,-0.8207,-0.00786764,-0.535504,-0.0926206,-0.288333,-0.000403113,0.0141766,0.0433948,-0.0130394,0.111814,0.163694
1413393223605760512,-1.0804,-0.327463,2.06966,0.574042,-0.00272061,-0.818772,-0.0089462,-0.520169,-0.0797918,-0.371355,-0.000392094,0.0142134,0.0434624,-0.00349195,0.0972633,0.161958
1413393223655760384,-1.10479,-0.331517,2.04913,0.576261,-0.00342743,-0.817193,-0.0103461,-0.513106,-0.0813832,-0.408458,-0.000381576,0.0142031,0.0435552,-0.00120021,0.0919943,0.164274
1413393223705760512,-1.13004,-0.334233,2.02902,0.577249,-0.00464931,-0.816478,-0.0112491,-0.507877,-0.0843412,-0.385558,-0.000400948,0.0142104,0.0436472,-0.00309263,0.0904156,0.163077
1413393223755760384,-1.15391,-0.33697,2.01216,0.578127,-0.00590086,-0.815838,-0.0119499,-0.506691,-0.0916443,-0.312292,-0.00044291,0.0142123,0.0437338,-0.00521777,0.0955119,0.167235
1413393223805760512,-1.1791,-0.341549,1.99719,0.579196,-0.00772184,-0.815054,-0.0126437,-0.505002,-0.109833,-0.258911,-0.000460262,0.0142377,0.0438046,-0.00663333,0.0950718,0.161736
1413393223855760384,-1.20227,-0.346909,1.98717,0.577977,-0.00918532,-0.815885,-0.0138189,-0.472217,-0.124268,-0.16109,-0.000445279,0.0142767,0.0439166,-0.00677665,0.0990269,0.175506
1413393223905760512,-1.22553,-0.353767,1.97936,0.578373,-0.0100179,-0.815542,-0.0166224,-0.48462,-0.123672,-0.102046,-0.000450175,0.0142563,0.0439783,0.00092247,0.0907976,0.180388
1413393223955760384,-1.24722,-0.362301,1.97655,0.578026,-0.0110898,-0.815739,-0.0182502,-0.466642,-0.153441,-0.0456449,-0.000440061,0.0142708,0.0441074,0.00718199,0.0991879,0.195356
1413393224005760512,-1.26967,-0.371027,1.97615,0.578952,-0.0125951,-0.81504,-0.0191389,-0.461526,-0.165689,-0.0154596,-0.000424198,0.0143036,0.0441684,0.0100569,0.100702,0.196858
1413393224055760384,-1.29287,-0.379485,1.97694,0.578229,-0.014585,-0.815517,-0.0192521,-0.459248,-0.173614,-0.0210914,-0.000431656,0.0143075,0.0442825,0.00629422,0.101701,0.198032
1413393224105760512,-1.31468,-0.387215,1.97446,0.579495,-0.0159347,-0.814587,-0.0194702,-0.441494,-0.185774,-0.077983,-0.000454806,0.0143125,0.0443468,0.0149108,0.0973518,0.198475
1413393224155760384,-1.33629,-0.398112,1.96842,0.580219,-0.0169521,-0.814026,-0.0205094,-0.430785,-0.194569,-0.114563,-0.000430312,0.0143006,0.0444357,0.0173071,0.0983446,0.193787
1413393224205760512,-1.35779,-0.450516,1.87435,0.587644,-0.0254779,-0.808417,-0.0220876,-0.422478,-0.249612,-0.191542,5.92361e-05,0.0136492,0.0443681,-0.0332958,0.224208,0.0781532
1413393224255760384,-1.38349,-0.459167,1.86802,0.589096,-0.0263849,-0.807281,-0.0238132,-0.433705,-0.245568,-0.220716,0.000121987,0.013611,0.0444172,-0.0471825,0.215398,0.0536188
1413393224305760512,-1.40374,-0.468155,1.86792,0.590197,-0.0270195,-0.80644,-0.0243431,-0.443418,-0.242667,-0.271667,0.000143351,0.0136787,0.0445067,-0.0702712,0.202251,0.0329291
1413393224355760384,-1.42286,-0.478196,1.85574,0.590672,-0.0273179,-0.806069,-0.0247752,-0.447642,-0.229754,-0.313508,0.000140298,0.0137066,0.0445735,-0.0807909,0.187408,0.0324948
1413393224405760512,-1.43687,-0.490547,1.84151,0.590498,-0.0295292,-0.806096,-0.0254894,-0.435798,-0.216561,-0.337903,0.000132543,0.0137542,0.0446478,-0.0951843,0.173034,0.0463361
1413393224455760384,-1.45173,-0.503339,1.82538,0.591424,-0.0327317,-0.805269,-0.0262462,-0.420084,-0.224759,-0.366968,0.000126407,0.0138185,0.0447545,-0.107636,0.163273,0.0580467
1413393224505760512,-1.46965,-0.514891,1.80725,0.591486,-0.0374032,-0.804988,-0.0271895,-0.397955,-0.217335,-0.402643,0.000117922,0.013892,0.0448439,-0.113951,0.158017,0.0662833
1413393224555760384,-1.48851,-0.526253,1.78731,0.590959,-0.0441884,-0.805029,-0.0272631,-0.389531,-0.216842,-0.422916,9.88176e-05,0.0139619,0.0449555,-0.121064,0.154512,0.0667728
1413393224605760512,-1.51185,-0.542158,1.76775,0.591487,-0.0515279,-0.804131,-0.0293686,-0.391281,-0.226989,-0.432972,0.000164466,0.0140639,0.0451028,-0.126718,0.165214,0.0509003
1413393224655760384,-1.53339,-0.555324,1.7472,0.591432,-0.060083,-0.803497,-0.0314867,-0.374442,-0.219794,-0.393697,0.00021482,0.0141375,0.0452496,-0.118719,0.167566,0.0447675
1413393224705760512,-1.55239,-0.567731,1.73361,0.588385,-0.068201,-0.804976,-0.0341383,-0.359183,-0.226202,-0.368731,0.000229667,0.0142827,0.0454004,-0.138838,0.16464,0.0297879
1413393224755760384,-1.57365,-0.583342,1.71448,0.585654,-0.076614,-0.806076,-0.0371571,-0.361686,-0.214094,-0.353678,0.000310922,0.0143656,0.0456044,-0.133356,0.161529,0.0161846
1413393224805760512,-1.59191,-0.59274,1.69355,0.583222,-0.0848757,-0.806804,-0.0414354,-0.325926,-0.180585,-0.343339,0.000337022,0.0144126,0.0456681,-0.118955,0.143525,0.00442353
1413393224855760384,-1.6059,-0.600041,1.67843,0.580596,-0.093222,-0.807603,-0.044676,-0.317689,-0.171159,-0.285826,0.000301421,0.0144957,0.0457424,-0.118031,0.121536,-0.000285008
1413393224905760512,-1.62884,-0.609894,1.66581,0.57906,-0.0993628,-0.807748,-0.0485841,-0.355929,-0.139621,-0.228712,0.000369162,0.0146157,0.0458274,-0.116214,0.103693,-0.035073
1413393224955760384,-1.64531,-0.617413,1.65324,0.57688,-0.105527,-0.808317,-0.051946,-0.328876,-0.122541,-0.174823,0.000397383,0.0146455,0.0458707,-0.0944015,0.104322,-0.0324847
1413393225005760512,-1.66572,-0.625887,1.64825,0.574171,-0.108808,-0.809509,-0.0564318,-0.366542,-0.126207,-0.0754185,0.000426047,0.0147933,0.045963,-0.11561,0.0978032,-0.0442082
1413393225055760384,-1.68608,-0.63514,1.64318,0.571425,-0.110305,-0.81089,-0.0613579,-0.388363,-0.130949,-0.0567501,0.00051525,0.0149471,0.0460985,-0.106408,0.114609,-0.039113
1413393225105760512,-1.70438,-0.643808,1.64174,0.569978,-0.112679,-0.811294,-0.0650454,-0.387875,-0.121351,-0.00465471,0.000567558,0.0150095,0.0461892,-0.0737376,0.129335,-0.0242393
1413393225155760384,-1.71644,-0.6591,1.64581,0.569604,-0.113676,-0.811158,-0.068211,-0.354094,-0.145044,-0.0322931,0.000570081,0.0150479,0.0462917,-0.0416465,0.123815,0.0222201
1413393225205760512,-1.71881,-0.672934,1.65112,0.56925,-0.115625,-0.811125,-0.0682718,-0.319996,-0.125369,-0.0373977,0.000580487,0.0150032,0.0463613,-0.00808186,0.107706,0.0562031
1413393225255760384,-1.72437,-0.682987,1.65253,0.568585,-0.116333,-0.81134,-0.0700445,-0.284863,-0.104433,-0.032851,0.000556528,0.0149763,0.0464349,0.0086815,0.0887324,0.0805039
1413393225305760512,-1.73494,-0.687215,1.64995,0.567852,-0.118315,-0.811503,-0.0707675,-0.282584,-0.0929676,-0.062345,0.000525014,0.0149867,0.0464977,0.0164298,0.0726181,0.0831022
1413393225355760384,-1.74286,-0.691123,1.64581,0.568056,-0.12086,-0.810782,-0.0730674,-0.235892,-0.0599104,-0.0514986,0.000521528,0.0149885,0.0465799,0.0397678,0.0556423,0.113377
1413393225405760512,-1.75251,-0.693852,1.64133,0.567742,-0.127062,-0.809984,-0.0738322,-0.240315,-0.0332899,-0.0461262,0.000483859,0.0149637,0.0466461,0.055224,0.041798,0.111832
1413393225455760384,-1.7636,-0.695126,1.63652,0.567013,-0.133725,-0.809237,-0.0758287,-0.254025,-0.0216277,-0.0558761,0.000459318,0.0149355,0.0467174,0.0772475,0.0369122,0.107967
1413393225505760512,-1.77109,-0.696566,1.63224,0.567764,-0.142907,-0.806923,-0.0780908,-0.212414,0.0078456,-0.0611138,0.000454912,0.0148827,0.0468028,0.0986612,0.027963,0.126426
1413393225555760384,-1.77752,-0.696113,1.62914,0.567154,-0.152898,-0.805238,-0.0809369,-0.161867,0.0271307,-0.0551214,0.00034729,0.0147929,0.046855,0.108731,0.0156394,0.156683
1413393225605760512,-1.78263,-0.695362,1.63117,0.566289,-0.164034,-0.803226,-0.0850778,-0.169884,0.0406457,-0.00164028,0.000309082,0.0147967,0.0469476,0.0847126,0.0318553,0.173197
1413393225655760384,-1.78838,-0.689908,1.62944,0.56664,-0.175446,-0.799964,-0.0905339,-0.133859,0.0913518,-0.0085155,0.000249397,0.0147336,0.0470111,0.0965892,0.013337,0.175712
1413393225705760512,-1.79793,-0.688555,1.63263,0.565822,-0.187765,-0.796849,-0.0980949,-0.149567,0.115284,0.0195301,0.00022122,0.0146966,0.047025,0.0772359,0.0271376,0.149691
1413393225755760384,-1.80731,-0.682089,1.63355,0.565225,-0.197842,-0.793508,-0.108281,-0.160149,0.136988,0.0147632,0.000168526,0.0146485,0.0470914,0.07399,0.0232113,0.127605
1413393225805760512,-1.81771,-0.676665,1.63724,0.564431,-0.20783,-0.789835,-0.119941,-0.152399,0.171027,0.0396248,0.000159066,0.0146236,0.0471723,0.0620696,0.02955,0.106789
1413393225855760384,-1.82319,-0.670083,1.63658,0.563356,-0.217547,-0.78576,-0.133731,-0.122419,0.16279,-0.0348743,0.000137531,0.0145468,0.0472077,0.0728442,0.0395741,0.109125
1413393225905760512,-1.84201,-0.672463,1.63525,0.561792,-0.227229,-0.781535,-0.148187,-0.150177,0.164555,-0.13904,0.00020948,0.0145804,0.0472368,0.0682906,0.0343662,0.0760672
1413393225955760384,-1.84766,-0.669282,1.63404,0.558869,-0.235746,-0.778187,-0.162835,-0.166678,0.145104,-0.22731,0.000233574,0.0145942,0.0473389,0.0465228,0.0671107,0.0802636
1413393226005760512,-1.85511,-0.66183,1.6318,0.556615,-0.244174,-0.774331,-0.175987,-0.174274,0.144406,-0.271108,0.000211242,0.0146522,0.0474315,0.0105614,0.0704506,0.0753706
1413393226055760384,-1.86298,-0.655163,1.62722,0.554681,-0.25437,-0.769949,-0.186556,-0.186889,0.149184,-0.26507,0.000196516,0.0147255,0.0474838,-0.0184622,0.0631828,0.0652877
1413393226105760512,-1.87287,-0.649755,1.62506,0.552284,-0.264853,-0.76625,-0.194154,-0.209688,0.129294,-0.230537,0.000176228,0.0148308,0.0475703,-0.0508579,0.0685781,0.0572671
1413393226155760384,-1.88598,-0.643137,1.62209,0.550573,-0.275586,-0.762101,-0.200309,-0.236551,0.127838,-0.172966,0.000187214,0.0149098,0.0476552,-0.0743098,0.0799569,0.046933
1413393226205760512,-1.89929,-0.636881,1.61442,0.548965,-0.286064,-0.757939,-0.20575,-0.241267,0.103962,-0.110076,0.000173364,0.0149204,0.0476738,-0.0743351,0.082947,0.0422882
1413393226255760384,-1.91518,-0.630173,1.60838,0.547273,-0.2959,-0.754549,-0.208787,-0.268454,0.118817,-0.0525638,0.000183206,0.0149399,0.0476986,-0.0672739,0.0778369,0.0244581
1413393226305760512,-1.92656,-0.625416,1.60414,0.546282,-0.304135,-0.751156,-0.211762,-0.247343,0.118499,-0.0521348,0.000195853,0.0149121,0.0477488,-0.0547976,0.0735429,0.020977
1413393226355760384,-1.93559,-0.619976,1.60168,0.544298,-0.312344,-0.749308,-0.211465,-0.24532,0.121024,-0.0269126,0.000161533,0.0149019,0.0478069,-0.0429462,0.0633573,0.0216534
1413393226405760512,-1.94176,-0.617421,1.59984,0.541281,-0.318513,-0.748709,-0.212133,-0.215272,0.125366,-0.0538826,0.000122134,0.0148391,0.0478301,-0.026962,0.0477157,0.0301481
1413393226455760384,-1.94958,-0.614432,1.59728,0.537697,-0.324444,-0.748939,-0.211445,-0.195258,0.127453,-0.0922798,8.48679e-05,0.0147964,0.0478819,-0.0167884,0.0345788,0.0436964
1413393226505760512,-1.95988,-0.607693,1.5963,0.533701,-0.329048,-0.749986,-0.210741,-0.202931,0.124011,-0.121643,5.38901e-05,0.0148221,0.0479814,-0.0372293,0.0482494,0.0626758
1413393226555760384,-1.97213,-0.602996,1.59283,0.531019,-0.3332,-0.750309,-0.209841,-0.216559,0.126356,-0.146954,5.04701e-05,0.0148497,0.0480288,-0.0525713,0.0643199,0.0654888
1413393226605760512,-1.98209,-0.597354,1.58846,0.528298,-0.336414,-0.750999,-0.20911,-0.21564,0.142936,-0.158658,4.71396e-05,0.0148796,0.0481111,-0.0692475,0.0715161,0.0717677
1413393226655760384,-1.9942,-0.590119,1.58588,0.526371,-0.337944,-0.75137,-0.210168,-0.239475,0.173629,-0.125524,4.70905e-05,0.0149416,0.0482364,-0.0891787,0.0754504,0.0585908
1413393226705760512,-2.00595,-0.581552,1.58251,0.525957,-0.335272,-0.75139,-0.215352,-0.251169,0.196148,-0.104219,4.6065e-05,0.014995,0.0483168,-0.100459,0.0746823,0.0627087
1413393226755760384,-2.01879,-0.571094,1.57746,0.526916,-0.332189,-0.75042,-0.22109,-0.246484,0.221136,-0.0818136,3.14426e-05,0.0150221,0.0483889,-0.0972543,0.0734335,0.0616043
1413393226805760512,-2.03093,-0.558071,1.57215,0.526919,-0.328821,-0.750481,-0.225858,-0.271811,0.227284,-0.068461,-1.18392e-05,0.0150425,0.0484515,-0.0931825,0.0693721,0.0493322
1413393226855760384,-2.04553,-0.547542,1.56716,0.527097,-0.325936,-0.750613,-0.22916,-0.283927,0.222909,-0.0915457,-1.15543e-05,0.0150869,0.0485239,-0.0839219,0.0824261,0.0490523
1413393226905760512,-2.06022,-0.536363,1.56343,0.526253,-0.322699,-0.751424,-0.232996,-0.293421,0.219858,-0.0747656,-1.92446e-05,0.0151316,0.0485896,-0.077606,0.0872189,0.0497815
1413393226955760384,-2.08693,-0.536339,1.55507,0.525872,-0.321124,-0.751014,-0.237309,-0.324692,0.189881,-0.059172,0.000178611,0.0151319,0.0487099,-0.0729235,0.0765853,0.0455265
1413393227005760512,-2.0682,-0.526676,1.57732,0.525505,-0.318933,-0.752778,-0.235484,-0.325643,0.205207,-0.0475311,-2.32565e-05,0.0151878,0.0487695,-0.0722742,0.0889799,0.0493158
1413393227055760384,-2.08501,-0.515558,1.57578,0.5262,-0.318365,-0.752599,-0.235272,-0.347596,0.205358,-0.0387643,-3.29998e-05,0.0152357,0.0488299,-0.0689729,0.0917276,0.0427555
1413393227105760512,-2.1079,-0.505882,1.57056,0.52792,-0.318219,-0.751474,-0.235211,-0.362186,0.198979,-0.0510786,1.09005e-05,0.0152643,0.0488898,-0.0580861,0.0860798,0.0315141
1413393227155760384,-2.12988,-0.497329,1.56671,0.529788,-0.319185,-0.750274,-0.233526,-0.378857,0.191844,-0.0413745,3.40959e-05,0.0152789,0.0489601,-0.0524536,0.0904385,0.0248822
1413393227205760512,-2.15142,-0.489042,1.56432,0.531594,-0.319917,-0.749234,-0.231753,-0.381681,0.186818,-0.0208314,6.59661e-05,0.0153096,0.0490334,-0.050867,0.0837585,0.0261043
1413393227255760384,-2.17103,-0.479874,1.56394,0.534261,-0.32219,-0.747489,-0.228077,-0.382038,0.187026,0.00890119,7.72377e-05,0.0153361,0.0491095,-0.0553694,0.0826143,0.0257769
1413393227305760512,-2.19254,-0.472922,1.56095,0.534679,-0.323999,-0.746925,-0.226376,-0.385915,0.172465,-0.0105417,9.94433e-05,0.0153566,0.0491465,-0.0456443,0.091415,0.0263713
1413393227355760384,-2.21274,-0.464904,1.56002,0.535861,-0.325097,-0.745856,-0.225531,-0.385784,0.166371,-0.00330762,0.000112954,0.0153607,0.0492111,-0.0425905,0.0933114,0.0241158
1413393227405760512,-2.23143,-0.45617,1.55879,0.535672,-0.32662,-0.745804,-0.223945,-0.37908,0.174081,-0.00163627,0.000119259,0.0153687,0.049266,-0.0385547,0.0927005,0.0194358
1413393227455760384,-2.25086,-0.447374,1.55716,0.536065,-0.328456,-0.745156,-0.222472,-0.378475,0.18457,-0.00803319,0.000124715,0.0153689,0.0493016,-0.0344929,0.0882984,0.00900127
1413393227505760512,-2.27339,-0.439008,1.55694,0.536016,-0.329491,-0.74473,-0.222487,-0.384526,0.186215,-0.00791215,0.000174408,0.0153951,0.0493913,-0.0397754,0.0930707,0.0017672
1413393227555760384,-2.29351,-0.428651,1.55613,0.537048,-0.331556,-0.743003,-0.222704,-0.380842,0.206149,-0.00881969,0.000184558,0.0154016,0.0494321,-0.0377431,0.0929013,-0.0112152
1413393227605760512,-2.31166,-0.418283,1.55567,0.537744,-0.334558,-0.740978,-0.223282,-0.365602,0.212464,-0.00779305,0.000182364,0.0154212,0.0495042,-0.0362011,0.0879456,-0.010711
1413393227655760384,-2.3285,-0.407645,1.55598,0.53727,-0.33798,-0.739192,-0.22518,-0.346261,0.221279,0.00447364,0.000188464,0.0154167,0.0495708,-0.0398247,0.08799,-0.00686418
1413393227705760512,-2.34697,-0.39699,1.55588,0.535676,-0.342977,-0.737193,-0.227958,-0.327399,0.230698,0.00241635,0.000215535,0.01545,0.0496366,-0.0417031,0.0864129,-0.00477938
1413393227755760384,-2.36439,-0.384971,1.55667,0.53416,-0.348893,-0.734512,-0.23117,-0.316345,0.241784,-0.00510177,0.000232441,0.01547,0.0497103,-0.0488806,0.0841182,-0.00847981
1413393227805760512,-2.38106,-0.372545,1.55823,0.531698,-0.354582,-0.732076,-0.235867,-0.30776,0.249077,-0.0180512,0.000245567,0.0155359,0.0497818,-0.0551868,0.0820262,-0.0133833
1413393227855760384,-2.39679,-0.359376,1.55831,0.530383,-0.362482,-0.728041,-0.239288,-0.291004,0.267895,-0.0146013,0.000262608,0.0155526,0.0498948,-0.0608097,0.0780887,-0.0159102
1413393227905760512,-2.41729,-0.347476,1.55654,0.527856,-0.370813,-0.723812,-0.244872,-0.282012,0.267613,-0.00528333,0.000346207,0.0155887,0.0499562,-0.0561721,0.071703,-0.00958349
1413393227955760384,-2.43681,-0.333431,1.55556,0.526078,-0.379504,-0.71855,-0.250809,-0.251113,0.278244,-0.0012345,0.000422145,0.0156209,0.050026,-0.0633663,0.0582331,-0.00689196
1413393228005760512,-2.45571,-0.319996,1.55379,0.523041,-0.389608,-0.713101,-0.257142,-0.222704,0.291939,-0.0130995,0.00050365,0.0156869,0.0500758,-0.0674609,0.0546372,-0.00503624
1413393228055760384,-2.47155,-0.306905,1.55274,0.519376,-0.398742,-0.707695,-0.26537,-0.221228,0.294677,-0.0179287,0.000563254,0.0157106,0.0501436,-0.0715777,0.0521883,-0.00726436
1413393228105760512,-2.48726,-0.292185,1.5538,0.515521,-0.408667,-0.702249,-0.272169,-0.218493,0.310112,0.00975238,0.000619135,0.0157683,0.0502222,-0.0778202,0.0584174,-0.0157369
1413393228155760384,-2.50284,-0.276739,1.55397,0.509869,-0.418033,-0.697665,-0.280262,-0.221801,0.315211,-0.0121732,0.000664859,0.0158283,0.0502878,-0.0812802,0.0786394,-0.0269741
1413393228205760512,-2.51662,-0.26024,1.55539,0.504499,-0.42757,-0.693146,-0.286731,-0.234319,0.321646,0.00239712,0.000698696,0.0158642,0.0503715,-0.0849856,0.0869546,-0.0308388
1413393228255760384,-2.52919,-0.244044,1.55691,-0.499023,0.434465,0.68974,0.294067,-0.231771,0.324489,0.0144007,0.000737354,0.0159166,0.0504413,-0.0868155,0.0928329,-0.0288414
1413393228305760512,-2.53803,-0.22888,1.55804,-0.494516,0.440745,0.686187,0.300575,-0.219478,0.33469,0.0156833,0.000747226,0.0159483,0.0505058,-0.0817903,0.0788445,-0.0294601
1413393228355760384,-2.54743,-0.212219,1.557,-0.490558,0.446098,0.682761,0.306898,-0.21591,0.347045,0.0150931,0.000762571,0.0159553,0.0505929,-0.0706257,0.0703826,-0.0339904
1413393228405760512,-2.55585,-0.195328,1.55608,-0.486597,0.451573,0.678987,0.313499,-0.198819,0.350895,0.0111411,0.000780078,0.0159604,0.0506539,-0.059518,0.0700426,-0.0329357
1413393228455760384,-2.56281,-0.179192,1.55371,-0.483583,0.458095,0.673987,0.319435,-0.199297,0.35351,0.000730453,0.000770549,0.0159339,0.0507107,-0.0426513,0.0742725,-0.0394026
1413393228505760512,-2.57516,-0.161482,1.55213,-0.481552,0.463478,0.66854,0.326114,-0.214198,0.354728,-0.0172952,0.000811536,0.0159482,0.0507943,-0.0280941,0.0704648,-0.0474936
1413393228555760384,-2.58351,-0.143337,1.55047,-0.47944,0.469268,0.663321,0.331556,-0.192436,0.360454,-0.0318152,0.000822096,0.0159507,0.0508411,-0.0226486,0.0660219,-0.050908
1413393228605760512,-2.58634,-0.127326,1.55185,-0.47596,0.475396,0.659278,0.335878,-0.169155,0.360674,-0.0217305,0.000781913,0.0159533,0.0509091,-0.0286523,0.0384722,-0.0384765
1413393228655760384,-2.59458,-0.108847,1.55168,-0.473607,0.481056,0.655359,0.338801,-0.182173,0.362461,-0.0127816,0.000788307,0.0159685,0.0509658,-0.0357922,0.0414361,-0.0428821
1413393228705760512,-2.60137,-0.0922368,1.55252,-0.47022,0.485235,0.653153,0.341806,-0.165985,0.352869,-0.00672674,0.00078006,0.0160098,0.0510344,-0.0439924,0.0416068,-0.025825
1413393228755760384,-2.60777,-0.0741601,1.55451,-0.467591,0.489268,0.651219,0.343351,-0.175266,0.355424,0.00773822,0.000753253,0.0160308,0.0510999,-0.0531481,0.0392828,-0.0266688
1413393228805760512,-2.71319,-0.0390195,1.53365,-0.461271,0.496177,0.648417,0.347264,-0.250888,0.407439,-0.038997,0.00125226,0.0160983,0.0512494,-0.0398085,0.0372766,-0.0767689
1413393228855760384,-2.7238,-0.0179732,1.53187,-0.45831,0.500574,0.64753,0.34653,-0.2277,0.405605,-0.0444274,0.00131947,0.0161291,0.0513338,-0.0430902,0.0185138,-0.0586364
1413393228905760512,-2.7422,0.00516942,1.52872,-0.454647,0.504605,0.648249,0.344156,-0.214506,0.394714,-0.0288555,0.00131782,0.0161759,0.0514272,-0.0478232,0.00714242,-0.0290212
1413393228955760384,-2.75466,0.026037,1.52756,-0.453379,0.506482,0.648287,0.342998,-0.191414,0.387742,-0.0286146,0.00128756,0.016234,0.0514876,-0.0501881,-0.0151173,-0.00138663
1413393229005760512,-2.75859,0.0459587,1.52847,-0.451442,0.506183,0.649056,0.344537,-0.161007,0.415165,-0.0141769,0.00127166,0.0162643,0.0515734,-0.0560068,-0.0315715,0.000704084
1413393229055760384,-2.75846,0.0662323,1.5314,-0.448589,0.503386,0.651157,0.348375,-0.149303,0.443765,-0.0267679,0.0012007,0.016311,0.0516477,-0.0644444,-0.0526921,0.00216703
1413393229105760512,-2.76303,0.089405,1.52858,-0.447593,0.499895,0.652128,0.352839,-0.144009,0.46183,-0.0570295,0.00118886,0.0163209,0.0517078,-0.061256,-0.0610219,-0.00912357
1413393229155760384,-2.7511,0.113789,1.523,-0.44778,0.496459,0.653098,0.355648,-0.116424,0.501262,-0.0715745,0.00106889,0.0162789,0.0517503,-0.0519301,-0.0841393,-0.0456716
1413393229205760512,-2.75447,0.137161,1.51896,-0.447034,0.493005,0.654384,0.359011,-0.130564,0.50134,-0.103525,0.00100642,0.0162934,0.0518116,-0.0491867,-0.0878286,-0.0379841
1413393229255760384,-2.75902,0.159777,1.51392,-0.446976,0.489826,0.655491,0.361408,-0.134789,0.491236,-0.120337,0.000961082,0.0163045,0.051852,-0.0460433,-0.0909889,-0.0250549
1413393229305760512,-2.76697,0.181208,1.50952,-0.447239,0.487275,0.655961,0.36367,-0.144425,0.47471,-0.124677,0.000936884,0.0163352,0.0519208,-0.0502238,-0.0831212,-0.00784612
1413393229355760384,-2.7777,0.197861,1.50702,-0.44792,0.48601,0.655607,0.365158,-0.208002,0.452367,-0.123723,0.000968172,0.0163628,0.0519506,-0.0593936,-0.0511833,0.0160684
1413393229405760512,-2.79224,0.220889,1.50106,-0.45006,0.48526,0.65479,0.36499,-0.229782,0.450857,-0.133468,0.000984559,0.0163946,0.0520031,-0.0652927,-0.0472145,0.0161312
1413393229455760384,-2.80441,0.243457,1.49592,-0.453904,0.485935,0.652817,0.362862,-0.238735,0.446986,-0.127562,0.000981233,0.0164369,0.0520639,-0.0680298,-0.0450785,0.0157212
1413393229505760512,-2.81885,0.266833,1.4872,-0.458462,0.487649,0.650225,0.35947,-0.2634,0.446804,-0.136389,0.000974549,0.0164626,0.0521366,-0.0644763,-0.04039,0.00785787
1413393229555760384,-3.01873,0.275199,1.4454,-0.448592,0.500599,0.638588,0.374662,-0.611431,0.387648,-0.178702,0.00305529,0.0163486,0.0522369,-0.0400241,0.12688,-0.0177633
1413393229605760512,-2.85789,0.339014,1.44904,-0.465975,0.490011,0.648563,0.349459,-0.218575,0.427594,-0.120097,0.000752331,0.016389,0.0522589,-0.0560691,-0.0568415,0.009652
1413393229655760384,-2.87689,0.365234,1.44648,-0.466126,0.493359,0.648734,0.344193,-0.239435,0.424161,-0.098018,0.000767297,0.0164817,0.0523162,-0.0700181,-0.0452503,0.0110728
1413393229705760512,-2.89393,0.38904,1.44871,-0.464114,0.495824,0.650218,0.340549,-0.236036,0.441819,-0.062717,0.000808439,0.0165957,0.0523688,-0.0865694,-0.0341754,0.0083382
1413393229755760384,-2.90862,0.411269,1.44689,-0.462382,0.49757,0.651711,0.337491,-0.23524,0.451166,-0.0375893,0.000817627,0.0166387,0.0524387,-0.0886415,-0.0321004,0.00573226
1413393229805760512,-3.05318,0.367035,1.44483,-0.445803,0.51213,0.642066,0.355997,-0.48543,0.467384,-0.0968891,0.00312161,0.0165716,0.0525684,-0.0487462,-0.00144669,-0.0497199
1413393229855760384,-2.93381,0.458417,1.42412,-0.45774,0.499166,0.655961,0.3332,-0.215621,0.495089,-0.020939,0.000837926,0.0165397,0.0526175,-0.07996,-0.0516193,-0.0280961
1413393229905760512,-2.94263,0.483749,1.4253,-0.455298,0.500261,0.658236,0.330407,-0.199739,0.517511,0.00646419,0.000787037,0.0165738,0.0526563,-0.0859102,-0.0612434,-0.0283903
1413393229955760384,-2.95321,0.508454,1.42563,-0.453352,0.499836,0.660019,0.330168,-0.202739,0.546058,0.0208698,0.000801761,0.016602,0.0527202,-0.0838119,-0.0564195,-0.0249137
1413393230005760512,-2.96156,0.535571,1.42721,-0.451519,0.497716,0.661995,0.331921,-0.188202,0.569425,0.0704815,0.000770915,0.0165812,0.0527578,-0.0809503,-0.0567329,-0.0199201
1413393230055760384,-2.97287,0.565658,1.4319,-0.450444,0.493174,0.66358,0.336959,-0.206299,0.600578,0.0754243,0.000754382,0.0166324,0.0528021,-0.0835847,-0.0546586,-0.0241794
1413393230105760512,-2.98195,0.594925,1.43514,-0.450093,0.488761,0.664716,0.341588,-0.205271,0.611454,0.0674601,0.000739007,0.0166671,0.0528262,-0.0822231,-0.0531951,-0.0175699
1413393230155760384,-2.99083,0.624821,1.43796,-0.450153,0.485003,0.665605,0.345117,-0.213939,0.620931,0.0648249,0.000706105,0.0166894,0.0528842,-0.0805031,-0.0552063,-0.0134591
1413393230205760512,-2.99674,0.65333,1.43549,-0.450683,0.480935,0.666834,0.347735,-0.219123,0.611956,0.0320646,0.000628118,0.016689,0.0529741,-0.0655917,-0.063005,-0.00502124
1413393230255760384,-3.00983,0.685503,1.43938,-0.451758,0.478609,0.666817,0.349576,-0.23846,0.632139,0.0166202,0.000625246,0.0167387,0.0529914,-0.0708887,-0.0609152,-0.0132418
1413393230305760512,-3.02832,0.71266,1.43886,-0.453984,0.477394,0.665244,0.351346,-0.275447,0.622376,0.00263,0.00071708,0.0167021,0.0530338,-0.0641863,-0.0460803,-0.0118362
1413393230355760384,-3.04936,0.743092,1.43747,-0.455232,0.478942,0.66412,0.349748,-0.301707,0.619063,-0.0308587,0.000806443,0.0167665,0.0530569,-0.0680971,-0.0384164,-0.0197285
1413393230405760512,-3.06524,0.773949,1.43825,-0.457694,0.47995,0.662809,0.347634,-0.319004,0.621724,-0.0265725,0.000816861,0.0168496,0.0531042,-0.0728857,-0.0321757,-0.0171205
1413393230455760384,-3.08241,0.803085,1.43428,-0.459298,0.482086,0.660974,0.346051,-0.327319,0.622166,-0.0251327,0.000844317,0.0168251,0.0531434,-0.0669341,-0.0253838,-0.013907
1413393230505760512,-3.09903,0.832639,1.43432,-0.460172,0.486096,0.658403,0.344178,-0.33269,0.613883,0.00716478,0.000857052,0.0168586,0.0531701,-0.0719281,-0.0202874,-0.00863873
1413393230555760384,-3.15607,0.85141,1.41389,-0.458287,0.494032,0.650609,0.350163,-0.395908,0.603379,-0.0391301,0.00148052,0.0166553,0.0532026,-0.066278,0.00577652,-0.0478248
1413393230605760512,-3.12935,0.89278,1.43352,-0.459527,0.497784,0.650367,0.343612,-0.307981,0.640464,-0.00409461,0.000912307,0.0169098,0.0532732,-0.0666891,-0.0232672,-0.0278321
1413393230655760384,-3.16844,0.906014,1.38223,-0.45968,0.50468,0.641115,0.350663,-0.368815,0.656574,-0.0461225,0.00127564,0.0164702,0.0533428,-0.0484305,0.0102218,-0.119235
1413393230705760512,-3.18113,0.943893,1.38976,-0.45666,0.511889,0.636687,0.352223,-0.360807,0.690333,0.0263829,0.00125272,0.0166116,0.0534384,-0.059911,0.0177213,-0.106369
1413393230755760384,-3.20533,0.976518,1.39107,-0.453151,0.520734,0.629575,0.356547,-0.349256,0.693624,0.0472692,0.0014143,0.0166467,0.0534552,-0.0669158,0.0162835,-0.102836
1413393230805760512,-3.21783,1.00953,1.393,-0.450363,0.528344,0.622928,0.360537,-0.329966,0.692579,0.0663875,0.00144163,0.0166355,0.0534944,-0.0655035,0.00823662,-0.0908361
1413393230855760384,-3.23866,1.04524,1.3987,-0.444995,0.536979,0.615929,0.366421,-0.31107,0.716243,0.0854205,0.00159197,0.0166918,0.0535519,-0.0713413,0.00834597,-0.0975082
1413393230905760512,-3.25443,1.08143,1.40312,-0.439019,0.54453,0.60914,0.373761,-0.301405,0.728112,0.116281,0.00167544,0.0167073,0.053581,-0.0709608,0.00305575,-0.102214
1413393230955760384,-3.26873,1.12083,1.41415,-0.430815,0.550981,0.604053,0.382019,-0.286691,0.74777,0.139642,0.00175862,0.0167909,0.0536031,-0.0772029,-0.00215203,-0.110643
1413393231005760512,-3.28177,1.15966,1.41897,-0.422375,0.555665,0.599566,0.391608,-0.265535,0.766803,0.145404,0.00183584,0.0168091,0.053606,-0.0721415,-0.0178659,-0.125847
1413393231055760384,-3.30186,1.19885,1.42559,-0.413217,0.559808,0.595428,0.401663,-0.273009,0.790701,0.134362,0.00200677,0.0168352,0.0536376,-0.0735633,-0.0260816,-0.135007
1413393231105760512,-3.31043,1.24145,1.44245,-0.406092,0.562885,0.592708,0.408591,-0.27822,0.81275,0.147223,0.00201598,0.0169876,0.0536228,-0.0835844,-0.0414261,-0.137435
1413393231155760384,-3.32408,1.28081,1.44687,-0.400465,0.56481,0.589634,0.415872,-0.286983,0.814339,0.143294,0.00210125,0.016976,0.0536477,-0.0666783,-0.0463598,-0.136726
1413393231205760512,-3.3344,1.32037,1.45327,-0.396369,0.567707,0.586879,0.419731,-0.287805,0.823689,0.137681,0.00211916,0.0169907,0.053691,-0.0607274,-0.0582861,-0.133299
1413393231255760384,-3.34233,1.35755,1.45959,-0.393511,0.568787,0.585162,0.42334,-0.299806,0.807144,0.128376,0.00206618,0.0169722,0.0537275,-0.0535964,-0.0760932,-0.114205
1413393231305760512,-3.35194,1.39256,1.46589,-0.393278,0.571125,0.582113,0.424609,-0.282627,0.788294,0.0729252,0.00205967,0.0169852,0.0537571,-0.0396097,-0.102398,-0.0991681
1413393231355760384,-3.36021,1.42976,1.46688,-0.394767,0.573451,0.579043,0.424291,-0.280328,0.780851,0.0256414,0.00200265,0.0169742,0.0538187,-0.0416001,-0.114507,-0.0931746
1413393231405760512,-3.37634,1.46826,1.46703,-0.396991,0.576137,0.575099,0.423941,-0.294526,0.785365,-0.00770886,0.00205585,0.0169833,0.0538542,-0.0466945,-0.123185,-0.0920557
1413393231455760384,-3.39281,1.50898,1.46938,-0.401144,0.578546,0.570243,0.423309,-0.295016,0.789386,-0.0273169,0.00209479,0.0170323,0.0538969,-0.0570275,-0.117518,-0.0885209
1413393231505760512,-3.40154,1.54567,1.47163,-0.407996,0.578979,0.56524,0.42288,-0.274961,0.769147,-0.0613358,0.00200856,0.0171175,0.0539528,-0.0588311,-0.141844,-0.0723135
1413393231555760384,-3.41217,1.58551,1.47232,-0.416515,0.57781,0.559256,0.424127,-0.266566,0.76815,-0.102572,0.00196905,0.0171892,0.0539646,-0.0644952,-0.143934,-0.0776488
1413393231605760512,-3.42837,1.62467,1.46704,-0.42361,0.576654,0.553139,0.426687,-0.242707,0.748946,-0.128455,0.00203451,0.017245,0.0540125,-0.0692943,-0.141679,-0.0832871
1413393231655760384,-3.44362,1.65932,1.45749,-0.428405,0.576061,0.54799,0.429338,-0.243926,0.711741,-0.153709,0.00208038,0.0172436,0.0540967,-0.0604407,-0.135755,-0.0822347
1413393231705760512,-3.45678,1.69463,1.44778,-0.429518,0.576574,0.545118,0.431189,-0.220337,0.684598,-0.160671,0.00211656,0.0172578,0.0541387,-0.054638,-0.130894,-0.0883143
1413393231755760384,-3.46985,1.72874,1.43887,-0.427485,0.579681,0.542691,0.432103,-0.196609,0.657331,-0.151832,0.0021633,0.0172993,0.0541812,-0.0507491,-0.122567,-0.0913689
1413393231805760512,-3.48047,1.76097,1.43096,-0.424878,0.584184,0.540436,0.431435,-0.195113,0.620322,-0.146162,0.002167,0.0173139,0.0542252,-0.0488243,-0.12006,-0.0923233
1413393231855760384,-3.48953,1.7915,1.42463,-0.422725,0.590468,0.537329,0.42887,-0.161266,0.588015,-0.131612,0.0022064,0.0173497,0.0542621,-0.0498978,-0.119709,-0.0916555
1413393231905760512,-3.50072,1.82113,1.41946,-0.417806,0.599128,0.533751,0.426139,-0.128059,0.560379,-0.1029,0.00227815,0.0173733,0.054295,-0.0491938,-0.120839,-0.0837559
1413393231955760384,-3.50706,1.84929,1.41561,-0.414121,0.607168,0.529385,0.423795,-0.101216,0.551655,-0.0838089,0.00230242,0.0174057,0.0543319,-0.0497254,-0.121737,-0.0824495
1413393232005760512,-3.50946,1.87625,1.41328,-0.410198,0.614784,0.524592,0.42259,-0.0479799,0.526982,-0.0713498,0.00230392,0.0174237,0.0543865,-0.0495597,-0.124823,-0.0803396
1413393232055760384,-3.51069,1.90269,1.41113,-0.404121,0.621246,0.520523,0.424024,-0.00204379,0.526359,-0.0348885,0.00230981,0.0174403,0.054437,-0.0439848,-0.124346,-0.076548
1413393232105760512,-3.51655,1.93015,1.40998,-0.396984,0.627639,0.515102,0.427952,0.0214084,0.507599,-0.016944,0.00242562,0.0174669,0.0544624,-0.0356616,-0.12123,-0.0758685
1413393232155760384,-3.52013,1.95435,1.40565,-0.39005,0.633164,0.509081,0.43336,0.0565716,0.484498,-0.0380387,0.00252235,0.0174244,0.0545149,-0.0187423,-0.122959,-0.0745106
1413393232205760512,-3.52065,1.97773,1.40098,-0.382729,0.636756,0.503002,0.441644,0.0842267,0.47494,-0.0505501,0.0025914,0.0173529,0.0545484,-0.00119604,-0.126118,-0.0734728
1413393232255760384,-3.52183,2.00416,1.39771,-0.375312,0.64157,0.49612,0.44877,0.105194,0.467207,-0.0960023,0.00269523,0.0173561,0.0545711,0.00857366,-0.131728,-0.0729893
1413393232305760512,-3.51808,2.0306,1.39799,-0.368302,0.646588,0.489294,0.454828,0.14128,0.466848,-0.131055,0.00275377,0.0174117,0.0545954,0.0085052,-0.136321,-0.0753932
1413393232355760384,-3.51382,2.05633,1.39294,-0.36276,0.652809,0.480773,0.459459,0.155835,0.463132,-0.166374,0.00280284,0.0174198,0.0546167,0.00630763,-0.134671,-0.0698956
1413393232405760512,-3.50524,2.08075,1.3868,-0.356504,0.65919,0.473831,0.462447,0.181571,0.465228,-0.182239,0.00281817,0.0174166,0.0546474,0.00141159,-0.128048,-0.0741094
1413393232455760384,-3.49707,2.10569,1.37997,-0.349911,0.665389,0.46655,0.465995,0.20309,0.459624,-0.219716,0.00286206,0.0174584,0.0546911,-0.003708,-0.125143,-0.0694326
1413393232505760512,-3.49012,2.12928,1.36655,-0.344561,0.67094,0.458603,0.469894,0.214347,0.455223,-0.268142,0.00292124,0.0173822,0.0547275,0.00353005,-0.126169,-0.0706413
1413393232555760384,-3.47632,2.14934,1.35498,-0.340512,0.675324,0.45243,0.472542,0.246614,0.454183,-0.301762,0.00289812,0.0173711,0.0547782,-0.00660095,-0.13776,-0.0743951
1413393232605760512,-3.46315,2.17157,1.33933,-0.33713,0.678348,0.44762,0.47521,0.263693,0.442671,-0.335872,0.0028915,0.0173287,0.0548372,-0.00993237,-0.144075,-0.0756747
1413393232655760384,-3.44849,2.1931,1.32577,-0.335104,0.681315,0.44268,0.477022,0.298902,0.431679,-0.304076,0.00286834,0.0173079,0.0548747,-0.0255539,-0.148186,-0.0745356
1413393232705760512,-3.43249,2.21396,1.31212,-0.333809,0.683041,0.438651,0.479178,0.311272,0.426224,-0.294503,0.00282257,0.0172723,0.0549061,-0.0309042,-0.151728,-0.0729195
1413393232755760384,-3.41513,2.2349,1.29865,-0.331587,0.68386,0.436626,0.481398,0.337689,0.413819,-0.272041,0.00279257,0.0172378,0.0549505,-0.0347727,-0.152507,-0.0766721
1413393232805760512,-3.39761,2.25728,1.28713,-0.329429,0.6851,0.434874,0.4827,0.371122,0.420101,-0.263542,0.00276799,0.0172387,0.0549827,-0.0421532,-0.14889,-0.0809573
1413393232855760384,-3.37971,2.28084,1.27708,-0.328344,0.685631,0.433134,0.484248,0.379249,0.430855,-0.249866,0.0027552,0.0172314,0.0550233,-0.049224,-0.14429,-0.0832941
1413393232905760512,-3.36032,2.30346,1.26702,-0.326264,0.686459,0.433175,0.484443,0.403453,0.421979,-0.234973,0.00275055,0.0172205,0.0550759,-0.0551106,-0.141985,-0.0858533
1413393232955760384,-3.34019,2.32568,1.2591,-0.322388,0.685582,0.434914,0.486717,0.423063,0.414983,-0.184325,0.00272964,0.0172199,0.0551527,-0.0612766,-0.139617,-0.0850106
1413393233005760512,-3.32116,2.34864,1.25278,-0.318884,0.685159,0.436608,0.488102,0.424502,0.424782,-0.148062,0.00272713,0.017229,0.0552009,-0.0648923,-0.133178,-0.081981
1413393233055760384,-3.30137,2.37244,1.24872,-0.315479,0.68422,0.438866,0.489605,0.427767,0.435093,-0.107128,0.00274107,0.0172411,0.0552316,-0.067777,-0.125065,-0.084936
1413393233105760512,-3.28124,2.39962,1.24843,-0.311953,0.684658,0.440701,0.489603,0.440491,0.442235,-0.0702028,0.00278113,0.0172753,0.0552574,-0.0737603,-0.117586,-0.094541
1413393233155760384,-3.26031,2.42348,1.24851,-0.310292,0.68391,0.442238,0.490318,0.434995,0.45511,-0.0221935,0.00276706,0.0172965,0.0553452,-0.0788899,-0.113213,-0.0920829
1413393233205760512,-3.23786,2.44849,1.25141,-0.309125,0.682744,0.443171,0.491836,0.442315,0.473209,0.0355749,0.00276217,0.0172759,0.0553944,-0.0843657,-0.112326,-0.0923537
1413393233255760384,-3.21467,2.47352,1.25652,-0.308827,0.681263,0.44118,0.49585,0.460147,0.465176,0.0793647,0.00275664,0.0172813,0.055397,-0.0878943,-0.113113,-0.0944097
1413393233305760512,-3.19091,2.49827,1.26355,-0.307972,0.679654,0.439307,0.500233,0.45716,0.478488,0.127625,0.00271918,0.0172971,0.0554777,-0.0914672,-0.114087,-0.0962549
1413393233355760384,-3.16714,2.52236,1.27171,-0.308077,0.677887,0.435331,0.506008,0.463389,0.473014,0.182947,0.00269106,0.0172708,0.0555085,-0.0929494,-0.115143,-0.0977941
1413393233405760512,-3.14245,2.54619,1.28254,-0.308473,0.67725,0.429562,0.511521,0.464105,0.454735,0.195532,0.00263343,0.0172825,0.0555385,-0.095814,-0.117401,-0.0992659
1413393233455760384,-3.11654,2.57047,1.29738,-0.309845,0.678703,0.421894,0.515135,0.465942,0.454018,0.249937,0.00258021,0.0173139,0.0555142,-0.101805,-0.122731,-0.104552
1413393233505760512,-3.10466,2.60489,1.32398,-0.30164,0.682993,0.415694,0.519358,0.425372,0.467829,0.313706,0.00285125,0.0176076,0.0555934,-0.115507,-0.0979802,-0.0992578
1413393233555760384,-3.08488,2.62472,1.337,-0.299131,0.685925,0.408386,0.522732,0.412443,0.433882,0.312175,0.00283165,0.0175764,0.0556544,-0.109408,-0.0969023,-0.0958643
1413393233605760512,-3.06276,2.6466,1.35358,-0.292713,0.690203,0.402703,0.525138,0.410961,0.435826,0.358325,0.00279082,0.0175713,0.0556593,-0.109905,-0.0979263,-0.100894
1413393233655760384,-3.03837,2.66209,1.37266,-0.285546,0.6958,0.397435,0.525711,0.419634,0.412228,0.389152,0.00269412,0.0175684,0.0556567,-0.108062,-0.112205,-0.102584
1413393233705760512,-3.01187,2.6751,1.39565,-0.279347,0.702179,0.392238,0.52446,0.426786,0.382515,0.428956,0.00248943,0.017563,0.0556432,-0.113387,-0.125182,-0.0999145
1413393233755760384,-2.99048,2.69159,1.42543,-0.271903,0.706057,0.3869,0.527125,0.422626,0.36883,0.508941,0.00234393,0.0176735,0.0556286,-0.126873,-0.129096,-0.0869768
1413393233805760512,-2.97051,2.70973,1.45033,-0.26849,0.709311,0.378568,0.530545,0.401807,0.345968,0.526346,0.00227923,0.0177131,0.0556131,-0.12498,-0.12785,-0.0875695
1413393233855760384,-2.95142,2.72798,1.47592,-0.265581,0.710282,0.371174,0.535908,0.382384,0.348718,0.511615,0.00222861,0.0177147,0.0556036,-0.123811,-0.126814,-0.088574
1413393233905760512,-2.93354,2.74572,1.50051,-0.26645,0.711673,0.362663,0.539446,0.371241,0.333119,0.505667,0.0021636,0.017726,0.0555831,-0.122074,-0.125228,-0.0897221
1413393233955760384,-2.91607,2.76286,1.52564,-0.265003,0.712965,0.354748,0.543699,0.369447,0.303687,0.496765,0.00211194,0.0177308,0.0555945,-0.122065,-0.122025,-0.0908645
1413393234005760512,-2.90168,2.78403,1.55066,-0.262925,0.717088,0.346789,0.54442,0.342633,0.306233,0.496856,0.00208328,0.0178218,0.0556943,-0.119124,-0.115031,-0.0937517
1413393234055760384,-2.90693,2.8201,1.58283,-0.254091,0.724062,0.335255,0.546604,0.2895,0.344304,0.476242,0.00259307,0.018013,0.0558407,-0.113405,-0.0898733,-0.0977964
1413393234105760512,-2.8955,2.84936,1.61352,-0.247534,0.731386,0.327592,0.544505,0.278032,0.351575,0.465232,0.00269905,0.018237,0.0559517,-0.113516,-0.0732977,-0.0904037
1413393234155760384,-2.88238,2.88074,1.63712,-0.240365,0.738857,0.319578,0.542388,0.265832,0.37454,0.415266,0.00283746,0.0184243,0.0559784,-0.108223,-0.0573196,-0.0877492
1413393234205760512,-2.86734,2.9018,1.65385,-0.238476,0.742956,0.31245,0.541776,0.256697,0.366082,0.363749,0.00279269,0.0184431,0.0560092,-0.0884771,-0.038735,-0.0737158
1413393234255760384,-2.85384,2.91456,1.67314,-0.243246,0.742959,0.302978,0.545022,0.257185,0.330694,0.326867,0.00259255,0.0184161,0.0560959,-0.0968056,-0.0292349,-0.0619445
1413393234305760512,-2.8371,2.9199,1.70706,-0.250371,0.744138,0.292036,0.546157,0.272487,0.310434,0.320089,0.00234125,0.0186517,0.0561091,-0.114689,-0.0127581,-0.0379562
1413393234355760384,-2.82462,2.93809,1.75925,-0.256316,0.751023,0.276312,0.542143,0.319936,0.237121,0.337751,0.00227608,0.0193487,0.0557526,-0.111737,-0.0146519,0.0755338
1413393234405760512,-2.80963,2.95882,1.77359,-0.261205,0.754692,0.257076,0.544173,0.360773,0.157891,0.315443,0.00243915,0.0195669,0.0554691,-0.130149,0.0109185,0.0979775
1413393234455760384,-2.79487,2.96624,1.80271,-0.263376,0.755306,0.247159,0.546862,0.339161,0.0976835,0.295716,0.00239828,0.0197633,0.0557037,-0.124749,0.015707,0.127922
1413393234505760512,-2.78428,2.97816,1.83905,-0.260044,0.756118,0.24128,0.549951,0.317647,0.042353,0.240481,0.00234725,0.0200233,0.0559362,-0.0800425,0.0214774,0.155225
1413393234555760384,-2.77952,2.98092,1.86209,-0.253109,0.756545,0.236456,0.554675,0.292872,-0.0380514,0.264219,0.00234011,0.020147,0.0561699,-0.0364217,0.0237248,0.18164
1413393234605760512,-2.77141,2.97695,1.87618,-0.237534,0.75658,0.236326,0.561529,0.286684,-0.0846379,0.250474,0.00236693,0.0202405,0.0563582,-0.00657492,0.0286548,0.18992
1413393234655760384,-2.76104,2.96907,1.89066,-0.214794,0.757364,0.240455,0.567843,0.257972,-0.14677,0.313447,0.00240287,0.0203227,0.0564948,0.0133304,0.032833,0.201488
1413393234705760512,-2.74866,2.94974,1.91012,-0.192656,0.75854,0.244095,0.572642,0.22814,-0.221549,0.446996,0.00234405,0.020227,0.0564597,0.0288112,0.0272729,0.192541
1413393234755760384,-2.73642,2.9231,1.93257,-0.174189,0.762293,0.244819,0.573263,0.202142,-0.260077,0.443389,0.00226614,0.0201824,0.0563682,0.0519866,0.0189043,0.17643
1413393234805760512,-2.72685,2.90342,1.95277,-0.154791,0.767538,0.24595,0.571345,0.178266,-0.270065,0.427472,0.00222529,0.0201516,0.0563745,0.0617221,0.0115634,0.167962
1413393234855760384,-2.71972,2.87539,1.96913,-0.143711,0.774046,0.24237,0.566972,0.149764,-0.298694,0.341498,0.00207285,0.0200275,0.056302,0.0749798,0.0111883,0.174234
1413393234905760512,-2.71434,2.85427,1.98073,-0.137481,0.780131,0.23436,0.563533,0.127846,-0.304704,0.23978,0.00197628,0.0199709,0.0563034,0.0886814,0.00597707,0.179324
1413393234955760384,-2.71293,2.8334,1.9883,-0.133359,0.785052,0.224463,0.561717,0.0962734,-0.306768,0.127123,0.00191641,0.0199157,0.0563304,0.0973869,-0.00335387,0.18931
1413393235005760512,-2.71047,2.81513,1.9889,-0.132825,0.790081,0.211281,0.559902,0.0837326,-0.308825,0.0152611,0.00188079,0.0198576,0.0563684,0.103663,-0.0148346,0.184885
1413393235055760384,-2.70454,2.79716,1.98398,-0.13392,0.794196,0.19743,0.558873,0.0807144,-0.299556,-0.0880452,0.00180026,0.0197939,0.0564269,0.101026,-0.000447304,0.179015
1413393235105760512,-2.69943,2.778,1.97557,-0.133415,0.797767,0.18396,0.558504,0.0726351,-0.29494,-0.179467,0.00173618,0.0197549,0.0565018,0.0972618,0.018178,0.183298
1413393235155760384,-2.69553,2.75895,1.9629,-0.130369,0.801333,0.171332,0.558136,0.0722223,-0.300775,-0.244605,0.00170286,0.0197118,0.0565483,0.0872806,0.0270168,0.194655
1413393235205760512,-2.69231,2.74097,1.94949,-0.122347,0.803195,0.161976,0.560066,0.070596,-0.316171,-0.249265,0.00169147,0.0196839,0.0565954,0.0732658,0.0202814,0.207249
1413393235255760384,-2.68668,2.7242,1.93529,-0.110613,0.805762,0.156837,0.560281,0.0721823,-0.312929,-0.266346,0.00162503,0.0196739,0.0566799,0.0713106,0.0307356,0.206887
1413393235305760512,-2.68332,2.70731,1.92108,-0.0971324,0.807952,0.152535,0.560813,0.0723314,-0.294281,-0.235792,0.00161133,0.0196347,0.0567353,0.0583037,0.0487161,0.2002
1413393235355760384,-2.67839,2.68792,1.90435,-0.086855,0.810352,0.148786,0.560044,0.0744121,-0.273195,-0.226988,0.00153194,0.0195185,0.0567748,0.0494609,0.0688903,0.179919
1413393235405760512,-2.67449,2.67026,1.88895,-0.0778399,0.812985,0.146068,0.558266,0.0763393,-0.247987,-0.207074,0.00147667,0.0194129,0.0568228,0.0430859,0.08064,0.161152
1413393235455760384,-2.67015,2.6548,1.87823,-0.0703167,0.815467,0.144059,0.556162,0.081785,-0.221971,-0.173852,0.00141613,0.0193648,0.0568663,0.0305009,0.0880789,0.172374
1413393235505760512,-2.6628,2.64302,1.87068,-0.0628611,0.818314,0.145064,0.552601,0.0766023,-0.187936,-0.142112,0.00127928,0.0194059,0.0569132,0.0458162,0.0890315,0.21112
1413393235555760384,-2.65052,2.63426,1.86947,-0.052161,0.817898,0.14912,0.553249,0.0935892,-0.144187,-0.09602,0.00111824,0.0195841,0.0569534,0.059541,0.0576797,0.258839
1413393235605760512,-2.63847,2.62735,1.86565,-0.0410726,0.815685,0.152648,0.55648,0.11707,-0.0940597,-0.120046,0.00102508,0.0196247,0.0569827,0.0612739,0.0524166,0.249302
1413393235655760384,-2.63027,2.62533,1.85978,-0.032688,0.81346,0.152287,0.560377,0.135823,-0.0267899,-0.101671,0.00101271,0.019625,0.0570305,0.0559108,0.0578787,0.235123
1413393235705760512,-2.62165,2.62624,1.85453,-0.0272849,0.81071,0.151452,0.56486,0.138552,0.0509726,-0.104168,0.000998099,0.0196369,0.0570942,0.0506725,0.0586,0.225826
1413393235755760384,-2.61325,2.62953,1.84906,-0.02666,0.809523,0.14789,0.567531,0.138587,0.120089,-0.0967113,0.000982165,0.0196367,0.0571335,0.0500686,0.0576537,0.219296
1413393235805760512,-2.60655,2.63432,1.84531,-0.0299799,0.808809,0.143106,0.569606,0.120491,0.177993,-0.0827139,0.000937644,0.0196311,0.0571471,0.0468543,0.0505874,0.228081
1413393235855760384,-2.60048,2.64241,1.84217,-0.0397248,0.808435,0.134518,0.571629,0.111503,0.21286,-0.0820811,0.000924031,0.019647,0.0571745,0.0468264,0.0406403,0.234894
1413393235905760512,-2.59673,2.6519,1.83819,-0.0511557,0.808145,0.123768,0.573557,0.08353,0.236005,-0.0804605,0.000911316,0.0196339,0.057219,0.047271,0.037882,0.24465
1413393235955760384,-2.5945,2.66329,1.83596,-0.0615389,0.808212,0.11245,0.574772,0.062121,0.247097,-0.0577122,0.000911292,0.0196352,0.0572473,0.0440301,0.0312069,0.257857
1413393236005760512,-2.5914,2.67554,1.8348,-0.0671745,0.807595,0.102627,0.576841,0.0519775,0.240765,-0.0298558,0.000926681,0.0196596,0.0573028,0.0449746,0.0312696,0.254261
1413393236055760384,-2.58856,2.68714,1.83358,-0.0721156,0.807568,0.0918434,0.578098,0.0480174,0.225989,-0.0244168,0.000922079,0.0196651,0.0573387,0.0476891,0.0276668,0.255784
1413393236105760512,-2.58526,2.69696,1.83287,-0.0736942,0.808001,0.0825173,0.5787,0.0545191,0.208714,0.0198603,0.000890133,0.0197065,0.0574016,0.0514412,0.0216541,0.262271
1413393236155760384,-2.58231,2.713,1.83647,-0.0708883,0.808678,0.0728554,0.579403,0.0396295,0.157934,0.0174426,0.00095415,0.0198067,0.0574563,0.060128,-0.00913763,0.237134
1413393236205760512,-2.58253,2.72444,1.83898,-0.0621286,0.810499,0.0655463,0.578736,0.0117716,0.133767,0.0433807,0.00100048,0.019859,0.0575077,0.0708859,-0.019627,0.241497
1413393236255760384,-2.58214,2.73333,1.84317,-0.0500336,0.812557,0.0603802,0.577584,-0.0166967,0.123971,0.068088,0.00103829,0.0199243,0.0575427,0.0815819,-0.0351134,0.23171
1413393236305760512,-2.58064,2.74265,1.84756,-0.0352684,0.814389,0.0553786,0.576594,0.01506,0.105232,0.0492626,0.00109852,0.0199619,0.057559,0.0765527,-0.0358604,0.204323
1413393236355760384,-2.57834,2.74819,1.85192,-0.0229524,0.815532,0.0483484,0.576232,0.0272216,0.107057,0.0822969,0.00111038,0.0199602,0.0575775,0.0725489,-0.042934,0.192286
1413393236405760512,-2.57698,2.75484,1.85764,-0.0143269,0.817085,0.039799,0.574964,0.0275673,0.119118,0.0862589,0.00110391,0.0199877,0.0575936,0.0670398,-0.0522597,0.196969
1413393236455760384,-2.57472,2.7594,1.86377,-0.00740605,0.817945,0.0301384,0.574458,0.028672,0.109594,0.0775529,0.00110056,0.0200102,0.0576067,0.0592546,-0.0604459,0.18939
1413393236505760512,-2.57248,2.76406,1.86836,-0.00199187,0.820383,0.0194424,0.57148,0.033588,0.103115,0.0788405,0.00109261,0.020014,0.0576422,0.0565388,-0.0648968,0.188921
1413393236555760384,-2.57005,2.76961,1.87455,0.00407226,0.823708,0.00927873,0.566924,0.0425311,0.105034,0.0901558,0.00107979,0.0200495,0.0576764,0.052674,-0.0734789,0.195701
1413393236605760512,-2.56917,2.77459,1.87992,0.00961023,0.828164,-0.00115654,0.560403,0.0457751,0.100477,0.0925678,0.00106786,0.0200837,0.0576917,0.0538962,-0.089372,0.206738
1413393236655760384,-2.5673,2.77982,1.88514,0.0144308,0.831809,-0.0113972,0.554757,0.0597988,0.0983602,0.0454541,0.00106432,0.020118,0.057726,0.0522784,-0.100482,0.218888
1413393236705760512,-2.56408,2.78513,1.8864,0.0172773,0.83336,-0.0208749,0.552066,0.0654306,0.103966,-0.00799911,0.00105007,0.0201195,0.0577565,0.0494657,-0.100619,0.219461
1413393236755760384,-2.55919,2.79063,1.88518,0.0179807,0.833417,-0.0314929,0.551454,0.101415,0.0891726,-0.0566562,0.00105923,0.0201309,0.0577863,0.0456516,-0.10851,0.207393
1413393236805760512,-2.55564,2.80122,1.88652,0.0188673,0.832051,-0.0432761,0.552687,0.12343,0.0947115,-0.0960847,0.00115447,0.0202172,0.057776,0.0427824,-0.11181,0.21894
1413393236855760384,-2.54848,2.82457,1.88719,0.0229203,0.830095,-0.0538182,0.554546,0.185526,0.082671,-0.0884587,0.00135297,0.020334,0.0577453,0.0367094,-0.127421,0.200949
1413393236905760512,-2.54052,2.82785,1.88522,0.025201,0.827901,-0.0594736,0.557142,0.191507,0.0511433,-0.0126785,0.00134454,0.0203426,0.0577791,0.0354806,-0.142518,0.215672
1413393236955760384,-2.53179,2.82961,1.88672,0.0293934,0.824649,-0.0622282,0.561443,0.207354,0.0147159,0.035996,0.00134514,0.0203528,0.0578156,0.0322074,-0.153983,0.223249
1413393237005760512,-2.52211,2.82928,1.89157,0.0346204,0.82162,-0.0620035,0.565594,0.210877,-0.000556226,0.126522,0.00132229,0.0203851,0.0578617,0.0342694,-0.159516,0.225952
1413393237055760384,-2.51795,2.89239,1.93568,0.0574809,0.816781,-0.0490411,0.571979,0.191597,0.00521893,0.174236,0.00151785,0.0215462,0.0583606,0.0578065,-0.536874,0.219058
1413393237105760512,-2.50695,2.88912,1.9489,0.0651486,0.814648,-0.0453119,0.574501,0.207049,-0.00392751,0.246673,0.00152636,0.0215661,0.0584313,0.046907,-0.551678,0.193536
1413393237155760384,-2.4957,2.88161,1.96864,0.072643,0.811995,-0.0403858,0.577717,0.22602,-0.0126073,0.228039,0.00151224,0.0215475,0.0584639,0.0363872,-0.549896,0.169006
1413393237205760512,-2.4845,2.88348,1.97904,0.0803167,0.810362,-0.0345409,0.579371,0.222808,0.00460133,0.18987,0.00149618,0.0215508,0.0584933,0.0246392,-0.541328,0.171192
1413393237255760384,-2.47203,2.88377,1.98717,0.0854617,0.809137,-0.0304917,0.580573,0.240129,0.00500431,0.118457,0.0014952,0.0215437,0.0585175,0.0180952,-0.535132,0.161152
1413393237305760512,-2.46009,2.88651,1.99219,0.0896077,0.809447,-0.0269556,0.57969,0.233862,0.0363655,0.0656511,0.00147372,0.0215577,0.0585592,0.00820153,-0.530767,0.164449
1413393237355760384,-2.44879,2.88957,1.99453,0.0922552,0.809836,-0.0238183,0.578867,0.221619,0.0676847,-0.00759165,0.00148117,0.0215901,0.0585978,0.00502508,-0.533772,0.17212
1413393237405760512,-2.43827,2.89258,1.99005,0.0911252,0.809373,-0.0216001,0.57978,0.198321,0.0769916,-0.0683716,0.00138491,0.0215222,0.0586349,-0.00268798,-0.522488,0.18975
1413393237455760384,-2.4267,2.89786,1.98471,0.0882248,0.809077,-0.0218875,0.580631,0.206137,0.121537,-0.103034,0.00137188,0.0215096,0.0586603,-0.00705171,-0.512634,0.175566
1413393237505760512,-2.41553,2.90592,1.97981,0.0817099,0.80874,-0.0244963,0.581948,0.211808,0.152496,-0.118511,0.00137328,0.0215263,0.0586792,-0.0120524,-0.509281,0.168034
1413393237555760384,-2.40479,2.9145,1.97545,0.072943,0.809227,-0.0285666,0.58225,0.197945,0.179005,-0.106036,0.00137025,0.0215549,0.0587108,-0.0153531,-0.505735,0.16914
1413393237605760512,-2.3942,2.9241,1.97049,0.0639646,0.809054,-0.0328733,0.583317,0.191116,0.18994,-0.10772,0.00136736,0.0215657,0.0587448,-0.0105111,-0.5057,0.163021
1413393237655760384,-2.38424,2.93266,1.96464,0.0548951,0.81045,-0.0372931,0.582037,0.183554,0.181311,-0.0958652,0.00136775,0.0215732,0.0587964,-0.00903639,-0.514575,0.154792
1413393237705760512,-2.37384,2.94093,1.95944,0.0474466,0.811116,-0.0401278,0.581576,0.175557,0.178364,-0.110567,0.0013439,0.021602,0.0588399,0.000269196,-0.510938,0.154538
1413393237755760384,-2.3647,2.94739,1.95572,0.0422744,0.812275,-0.0415954,0.580251,0.166321,0.148593,-0.0854914,0.0013344,0.021606,0.0588999,-0.010291,-0.530225,0.154172
1413393237805760512,-2.35592,2.95406,1.95245,0.0391748,0.813323,-0.0421704,0.578958,0.174632,0.125774,-0.0556205,0.00133602,0.0216319,0.0589341,-0.0135436,-0.53488,0.152333
1413393237855760384,-2.34701,2.95929,1.94948,0.0391514,0.815029,-0.0407692,0.576657,0.183033,0.0993457,-0.0623322,0.00133365,0.0216625,0.0589904,-0.0135734,-0.541773,0.150261
1413393237905760512,-2.33805,2.96342,1.94719,0.0410093,0.817076,-0.038351,0.573789,0.177353,0.0765729,-0.0440919,0.00133111,0.0216721,0.0590113,-0.00629998,-0.547487,0.151277
1413393237955760384,-2.3291,2.96689,1.94515,0.0433974,0.818325,-0.036281,0.571966,0.170207,0.0527738,-0.0572485,0.00134407,0.0216988,0.059068,-0.00450025,-0.550539,0.152441
1413393238005760512,-2.32003,2.96818,1.94166,0.0504902,0.821463,-0.0310986,0.56717,0.176256,0.0293404,-0.0635255,0.00132962,0.0216912,0.0591021,-0.00492841,-0.562633,0.147181
1413393238055760384,-2.31068,2.96977,1.93908,0.0571577,0.823821,-0.0262592,0.56335,0.192952,0.0315928,-0.0405779,0.00132512,0.0217013,0.0591377,-0.0119866,-0.563791,0.152978
1413393238105760512,-2.3007,2.97093,1.93725,0.0623131,0.826157,-0.0230811,0.559508,0.209589,0.0231921,-0.0376437,0.00132376,0.0217188,0.0591534,-0.0136832,-0.569654,0.151952
1413393238155760384,-2.28971,2.97195,1.93637,0.0673366,0.826557,-0.0209599,0.558418,0.224051,0.0205217,-0.0113965,0.00131534,0.0217161,0.0591832,-0.0161277,-0.570821,0.149406
1413393238205760512,-2.27715,2.97305,1.93612,0.0712605,0.827118,-0.0196812,0.557145,0.265563,0.0422514,-0.00525747,0.0012887,0.0217192,0.0592111,-0.0207435,-0.569256,0.140613
1413393238255760384,-2.26388,2.97514,1.93857,0.0745104,0.827203,-0.0189406,0.556619,0.273162,0.0540827,0.0445344,0.00130118,0.0217304,0.0592382,-0.022433,-0.58154,0.142377
1413393238305760512,-2.2494,2.97904,1.94303,0.0775654,0.827429,-0.0199425,0.55583,0.321064,0.0740571,0.103516,0.00131416,0.0217445,0.0592703,-0.0279668,-0.576742,0.14391
1413393238355760384,-2.2335,2.98498,1.95054,0.0786317,0.827821,-0.021264,0.555047,0.354245,0.10756,0.14074,0.00128934,0.0217704,0.0593049,-0.0341698,-0.582346,0.169289
1413393238405760512,-2.21559,2.99157,1.96188,0.0790451,0.827395,-0.0231671,0.555548,0.390889,0.136462,0.221552,0.00129617,0.0217778,0.0593233,-0.0450178,-0.57934,0.198439
1413393238455760384,-2.19775,3.00139,1.97862,0.0779422,0.825707,-0.0270855,0.558032,0.397395,0.173899,0.252857,0.00135492,0.0218417,0.0593609,-0.0441107,-0.586718,0.211897
1413393238505760512,-2.17712,3.00929,1.99121,0.0721478,0.824575,-0.0334501,0.560135,0.41468,0.17428,0.221585,0.00136405,0.0218589,0.0593881,-0.0423692,-0.598117,0.203356
1413393238555760384,-2.1562,3.01657,2.00175,0.0647117,0.822139,-0.0405735,0.56414,0.413454,0.166181,0.16652,0.00136038,0.021876,0.0593982,-0.0388285,-0.609364,0.198736
1413393238605760512,-2.13381,3.02441,2.00844,0.056323,0.819756,-0.0483566,0.567881,0.435453,0.153221,0.103003,0.00136981,0.0218808,0.0594153,-0.0361257,-0.60271,0.18537
1413393238655760384,-2.11169,3.03005,2.01313,0.0485715,0.818142,-0.0554947,0.570268,0.441336,0.11533,0.0611708,0.00137038,0.0219024,0.0594471,-0.038722,-0.616117,0.180025
1413393238705760512,-2.08905,3.03501,2.01524,0.042543,0.816858,-0.0610154,0.572022,0.438171,0.0887145,-0.00144198,0.00137032,0.0219152,0.0594777,-0.0411924,-0.614045,0.17933
1413393238755760384,-2.06671,3.03823,2.0141,0.0382052,0.815684,-0.0654501,0.573513,0.440861,0.046339,-0.0410651,0.00137665,0.0219197,0.0595048,-0.0415965,-0.617458,0.169379
1413393238805760512,-2.04452,3.03987,2.01141,0.0372058,0.814649,-0.0671488,0.574852,0.441098,0.0130759,-0.0551059,0.0013738,0.0219185,0.0595446,-0.0396602,-0.615937,0.164473
1413393238855760384,-2.02234,3.03913,2.00922,0.0394728,0.814389,-0.066611,0.575131,0.43511,-0.0326949,-0.0390027,0.00138054,0.0219243,0.0595827,-0.0436788,-0.619068,0.163017
1413393238905760512,-2.00071,3.03591,2.00784,0.0445378,0.814449,-0.0639517,0.574978,0.441904,-0.0759587,-0.0170153,0.00137476,0.0219389,0.0596287,-0.051635,-0.624339,0.158992
1413393238955760384,-1.97922,3.03135,2.00815,0.0529988,0.814785,-0.0587621,0.574338,0.426534,-0.109419,0.00437092,0.00138193,0.0219401,0.0596443,-0.0519354,-0.629636,0.159663
1413393239005760512,-1.95731,3.02551,2.00919,0.0626024,0.814674,-0.0529655,0.574093,0.422635,-0.129601,0.0211611,0.00135698,0.0219744,0.0596923,-0.0462075,-0.633325,0.157833
1413393239055760384,-1.93579,3.01948,2.01078,0.0709357,0.815172,-0.0470584,0.57293,0.428758,-0.116086,0.0189575,0.00133025,0.0219975,0.0597287,-0.0465294,-0.642044,0.157356
1413393239105760512,-1.91416,3.01319,2.01246,0.0777245,0.815245,-0.0425052,0.572301,0.420966,-0.131928,0.0108285,0.00131863,0.0220354,0.0597586,-0.045724,-0.649979,0.158191
1413393239155760384,-1.89217,3.00673,2.0139,0.0824235,0.815152,-0.0397345,0.571974,0.432966,-0.11713,0.0353197,0.00129229,0.0220409,0.0597886,-0.0512648,-0.654092,0.148191
1413393239205760512,-1.86934,3.00168,2.01505,0.0863381,0.815656,-0.0367348,0.570878,0.449987,-0.0897141,0.0110248,0.00128209,0.0220749,0.0598118,-0.0480084,-0.651652,0.135576
1413393239255760384,-1.84652,2.9974,2.01643,0.0884211,0.815279,-0.035944,0.571149,0.448175,-0.0904908,0.0188112,0.00127879,0.0220857,0.0598282,-0.0482752,-0.653936,0.130299
1413393239305760512,-1.82379,2.99367,2.01835,0.0909329,0.815504,-0.0349677,0.570493,0.457186,-0.0617098,0.0295297,0.00126219,0.0221108,0.0598628,-0.0501951,-0.660283,0.128533
1413393239355760384,-1.80065,2.99101,2.01903,0.0917852,0.816168,-0.0340936,0.569459,0.464436,-0.0361908,0.0355061,0.00125133,0.0220941,0.059909,-0.0454512,-0.657477,0.12257
1413393239405760512,-1.77617,2.98933,2.02222,0.0926278,0.816471,-0.0340579,0.56889,0.475624,-0.0273014,0.0435345,0.00124156,0.022144,0.0599424,-0.0465461,-0.667799,0.119777
1413393239455760384,-1.75207,2.98935,2.0257,0.0922376,0.817179,-0.0346253,0.567901,0.481912,0.0102796,0.053543,0.00122808,0.0221899,0.0599855,-0.0475667,-0.666944,0.124167
1413393239505760512,-1.72716,2.99024,2.02901,0.0945514,0.817204,-0.03279,0.567593,0.494062,0.0253447,0.0757085,0.00123483,0.0222078,0.0600223,-0.0348641,-0.674461,0.120961
1413393239555760384,-1.7025,2.99193,2.03249,0.0926049,0.817555,-0.0343489,0.567318,0.499264,0.0439288,0.0707819,0.00121937,0.0222249,0.0600316,-0.0279545,-0.680692,0.118047
1413393239605760512,-1.67665,2.99481,2.03592,0.088498,0.81803,-0.0366765,0.567142,0.517505,0.0766153,0.0722607,0.00121011,0.0222271,0.0600587,-0.0234984,-0.680005,0.109289
1413393239655760384,-1.65108,2.99899,2.04031,0.0812831,0.817992,-0.0415312,0.567941,0.517138,0.0877949,0.0942178,0.00122099,0.0222339,0.0600693,-0.0206881,-0.676984,0.117454
1413393239705760512,-1.62517,3.00342,2.04576,0.0708628,0.817956,-0.0490163,0.568792,0.516202,0.0851134,0.1009,0.00121626,0.0222683,0.060113,-0.023939,-0.682344,0.12313
1413393239755760384,-1.59741,3.00809,2.05164,0.0628706,0.817793,-0.0541891,0.569495,0.53024,0.0771259,0.0911799,0.00122422,0.0223236,0.0601577,-0.0205057,-0.697233,0.1125
1413393239805760512,-1.57037,3.01071,2.05721,0.0575397,0.817867,-0.0577832,0.5696,0.530825,0.0360908,0.10008,0.00123233,0.0223443,0.0601949,-0.0197128,-0.706342,0.110319
1413393239855760384,-1.54313,3.01139,2.06234,0.0548489,0.818845,-0.0600118,0.568229,0.534228,0.00609587,0.0770752,0.00123009,0.0223741,0.0602307,-0.0209918,-0.716479,0.100259
1413393239905760512,-1.51502,3.01094,2.06712,0.0568809,0.819728,-0.0582692,0.566935,0.547564,-0.0175823,0.0956931,0.00123066,0.0223727,0.0602958,-0.0248176,-0.716626,0.0925409
1413393239955760384,-1.48706,3.0094,2.07221,0.0584086,0.819975,-0.0570794,0.566544,0.556314,-0.0403858,0.112355,0.00122564,0.0223837,0.0603245,-0.0284724,-0.714128,0.0936774
1413393240005760512,-1.45851,3.00594,2.07675,0.0625828,0.819283,-0.0540452,0.567396,0.571903,-0.0641043,0.105477,0.00122786,0.0223821,0.0603481,-0.0256747,-0.713271,0.0827914
1413393240055760384,-1.42962,3.00261,2.08242,0.0677527,0.818712,-0.0496737,0.568026,0.571836,-0.0719374,0.116595,0.00122409,0.0223815,0.0603899,-0.0236611,-0.708545,0.0865882
1413393240105760512,-1.40037,2.99875,2.08839,0.0751318,0.817387,-0.0439147,0.569479,0.576852,-0.0852183,0.123424,0.0012155,0.0223935,0.0604126,-0.0180617,-0.711637,0.0834021
1413393240155760384,-1.37159,2.9949,2.09401,0.0812787,0.816436,-0.0386437,0.57038,0.578884,-0.0748825,0.090115,0.00119229,0.0224038,0.060442,-0.0160895,-0.714484,0.086075
1413393240205760512,-1.34325,2.99167,2.0982,0.0853255,0.815569,-0.0347154,0.571281,0.56235,-0.0592427,0.0526097,0.00118659,0.0224103,0.0604656,-0.0179303,-0.710879,0.0921226
1413393240255760384,-1.31504,2.98775,2.09905,0.0880995,0.815987,-0.0317707,0.570433,0.559382,-0.0608294,-0.00322773,0.00116384,0.0224209,0.0604992,-0.0113759,-0.719997,0.0864144
1413393240305760512,-1.28739,2.98482,2.09779,0.0871795,0.816211,-0.0316532,0.570261,0.557856,-0.0434715,-0.0510722,0.00114883,0.0224224,0.0605245,-0.0155169,-0.71948,0.0876238
1413393240355760384,-1.25916,2.98322,2.09388,0.0853505,0.816251,-0.0326083,0.570427,0.559921,-0.031428,-0.101813,0.00115017,0.0224392,0.0605568,-0.0140658,-0.716318,0.0865917
1413393240405760512,-1.23047,2.98299,2.08504,0.0808645,0.816003,-0.0358956,0.571238,0.588386,-0.0123146,-0.162359,0.00115917,0.0224234,0.0605747,0.00130598,-0.695654,0.0698248
1413393240455760384,-1.20177,2.98176,2.07403,0.0767832,0.815182,-0.0386573,0.57279,0.587103,-0.0196653,-0.221025,0.00117201,0.0224086,0.0605996,0.0158229,-0.699682,0.0676313
1413393240505760512,-1.1729,2.98006,2.06273,0.0708016,0.814967,-0.0428662,0.573566,0.579736,-0.0285253,-0.232323,0.00116841,0.0223951,0.0606188,0.0109404,-0.708038,0.0684543
1413393240555760384,-1.1444,2.97921,2.05254,0.0668076,0.814449,-0.0459511,0.574541,0.573487,-0.027317,-0.193088,0.00117496,0.0224159,0.0606586,0.00905826,-0.70567,0.0779805
1413393240605760512,-1.11675,2.97749,2.04524,0.0634074,0.814161,-0.0485856,0.575118,0.5593,-0.0403191,-0.13837,0.00117379,0.022421,0.0607002,0.00587431,-0.712272,0.0875575
1413393240655760384,-1.08984,2.97517,2.04165,0.0625515,0.814334,-0.0500533,0.574841,0.588932,-0.060805,-0.0597943,0.0011711,0.0224368,0.0607249,-0.00136502,-0.715841,0.107058
1413393240705760512,-1.06276,2.97195,2.04273,0.0636631,0.814607,-0.050564,0.574288,0.601246,-0.0762859,0.091219,0.00117357,0.0224463,0.060764,0.00958303,-0.722229,0.136022
1413393240755760384,-1.03529,2.96902,2.04695,0.0679064,0.81377,-0.0489378,0.575128,0.570137,-0.0718065,0.132697,0.00116042,0.0224672,0.0607986,0.0462441,-0.719369,0.160943
1413393240805760512,-1.0087,2.966,2.05204,0.0724055,0.812183,-0.0471827,0.576966,0.555768,-0.079226,0.135941,0.00115795,0.0224611,0.0608385,0.0776227,-0.72006,0.165403
1413393240855760384,-0.984521,2.96158,2.05416,0.0778089,0.810075,-0.045202,0.57938,0.53218,-0.0650868,0.0845671,0.00117532,0.0224173,0.0608542,0.0969616,-0.698137,0.159777
1413393240905760512,-0.958132,2.95773,2.0534,0.0808184,0.806823,-0.0455041,0.583467,0.521145,-0.0830595,0.00774608,0.00121563,0.0223506,0.0608857,0.101332,-0.682626,0.131196
1413393240955760384,-0.933712,2.95389,2.05209,0.0842862,0.803835,-0.0451881,0.587114,0.479405,-0.0747574,-0.0677631,0.00122497,0.0223287,0.0609135,0.0969102,-0.676832,0.134376
1413393241005760512,-0.910985,2.94947,2.05,0.0869426,0.801191,-0.0445732,0.59038,0.461571,-0.0734107,-0.108194,0.00121787,0.0223355,0.0609393,0.0750085,-0.689597,0.148447
1413393241055760384,-0.887234,2.94468,2.04495,0.0874057,0.798763,-0.0456013,0.593513,0.455008,-0.0800838,-0.158481,0.00120916,0.0223412,0.0609741,0.0599384,-0.696737,0.140847
1413393241105760512,-0.864729,2.94107,2.03801,0.0849272,0.79794,-0.0489979,0.594709,0.439792,-0.0674744,-0.21657,0.00119851,0.0223619,0.0609985,0.038767,-0.697141,0.141083
1413393241155760384,-0.844279,2.93743,2.02904,0.0804881,0.797877,-0.053919,0.594985,0.404377,-0.0717442,-0.256406,0.00119163,0.0223774,0.0610224,0.0176498,-0.702127,0.147832
1413393241205760512,-0.82342,2.93295,2.01716,0.0756833,0.798524,-0.0587788,0.594287,0.393203,-0.0782857,-0.271555,0.00118221,0.0223821,0.0610503,0.0027994,-0.708964,0.141918
1413393241255760384,-0.80374,2.92756,2.00469,0.0713943,0.799595,-0.0634615,0.592895,0.373,-0.0966491,-0.268916,0.0011756,0.0223852,0.06108,-0.00978035,-0.715252,0.134229
1413393241305760512,-0.785481,2.9233,1.99307,0.0684596,0.801771,-0.0675962,0.589838,0.354029,-0.103707,-0.243646,0.0011763,0.0223976,0.0611016,-0.018648,-0.707043,0.137369
1413393241355760384,-0.768612,2.91715,1.98164,0.0684169,0.806947,-0.0696074,0.582504,0.335043,-0.117073,-0.231794,0.00116413,0.0224264,0.061139,-0.0267042,-0.709387,0.137104
1413393241405760512,-0.751915,2.91033,1.97132,0.0680852,0.81047,-0.0715962,0.577388,0.32636,-0.143636,-0.213764,0.00116269,0.0224306,0.0611624,-0.0319496,-0.713486,0.139518
1413393241455760384,-0.733415,2.90464,1.96216,0.0717496,0.813035,-0.0715886,0.573325,0.32675,-0.168312,-0.178202,0.00118255,0.022449,0.0611996,-0.0314021,-0.728381,0.138199
1413393241505760512,-0.716756,2.89654,1.9541,0.0766072,0.814234,-0.0692482,0.571279,0.32159,-0.176527,-0.145433,0.00117774,0.022459,0.0612256,-0.0262487,-0.740661,0.143755
1413393241555760384,-0.700842,2.88821,1.94632,0.0818095,0.813696,-0.0664119,0.571661,0.319315,-0.18852,-0.138409,0.00118012,0.022472,0.0612527,-0.024071,-0.729794,0.150434
1413393241605760512,-0.684309,2.87895,1.93915,0.0876808,0.811999,-0.0627325,0.573616,0.325984,-0.186418,-0.141459,0.00117481,0.0224723,0.0612824,-0.0209564,-0.727737,0.143523
1413393241655760384,-0.668314,2.87064,1.93287,0.0920442,0.810851,-0.0594428,0.574905,0.313738,-0.167114,-0.124879,0.00116716,0.0224624,0.0613068,-0.0220241,-0.724097,0.152363
1413393241705760512,-0.651692,2.86254,1.92652,0.0966188,0.8095,-0.0560254,0.576399,0.316807,-0.162253,-0.125594,0.0011688,0.0224731,0.0613259,-0.0239269,-0.719459,0.143926
1413393241755760384,-0.635401,2.8543,1.91987,0.0987002,0.809324,-0.0546013,0.57643,0.320944,-0.152226,-0.117439,0.0011612,0.0224789,0.0613556,-0.0223826,-0.719634,0.135438
1413393241805760512,-0.618834,2.84681,1.9132,0.100658,0.810125,-0.0525034,0.57516,0.325281,-0.127694,-0.123188,0.00114677,0.0224986,0.0613811,-0.0197218,-0.71577,0.126842
1413393241855760384,-0.60276,2.84018,1.90665,0.101551,0.810738,-0.0511747,0.574259,0.325525,-0.121252,-0.116629,0.00115662,0.0224892,0.0614095,-0.0144991,-0.716804,0.125848
1413393241905760512,-0.58648,2.83441,1.90071,0.102156,0.809816,-0.0501188,0.575544,0.325937,-0.0995392,-0.0835779,0.00114419,0.0224746,0.0614404,-0.00566388,-0.718866,0.120807
1413393241955760384,-0.569866,2.83026,1.89552,0.102614,0.80773,-0.0477295,0.578588,0.326228,-0.0658327,-0.0927974,0.00113791,0.0224859,0.0614704,0.000847566,-0.714416,0.115183
1413393242005760512,-0.553818,2.82691,1.89122,0.102086,0.806202,-0.0464626,0.580912,0.323119,-0.0572909,-0.0882973,0.00113462,0.0224855,0.0614965,-0.00383879,-0.71914,0.115994
1413393242055760384,-0.538016,2.8249,1.88775,0.102006,0.803604,-0.0445885,0.58466,0.316045,-0.0199224,-0.0664351,0.00112717,0.022484,0.0615291,-0.0055963,-0.721038,0.116702
1413393242105760512,-0.523613,2.82382,1.88495,0.101587,0.801371,-0.0424566,0.587947,0.2902,-0.00160869,-0.057147,0.00112294,0.0225022,0.061555,-0.00173283,-0.728746,0.129807
1413393242155760384,-0.510303,2.82436,1.883,0.0991911,0.79806,-0.0424442,0.592841,0.263595,0.0134224,-0.041848,0.00111864,0.0225051,0.0615857,-0.00548468,-0.729716,0.135422
1413393242205760512,-0.497741,2.82604,1.88245,0.0958465,0.794462,-0.0427442,0.598178,0.234886,0.0504045,-0.022099,0.00111313,0.0225242,0.0616198,-0.0132321,-0.731593,0.135387
1413393242255760384,-0.486742,2.8268,1.88108,0.0935509,0.792011,-0.0425469,0.601794,0.202889,0.0420061,-0.0170722,0.00110564,0.0225223,0.0616429,-0.0113545,-0.739359,0.127353
1413393242305760512,-0.476333,2.82969,1.87961,0.091338,0.790943,-0.0435671,0.603464,0.177063,0.056101,-0.0175905,0.00111062,0.0225353,0.0616681,-0.0100156,-0.730246,0.113146
1413393242355760384,-0.467987,2.83386,1.87823,0.0873915,0.792224,-0.0456166,0.602215,0.147312,0.0839405,-0.0349717,0.00109778,0.0225687,0.0616941,-0.00436344,-0.725762,0.116563
1413393242405760512,-0.461405,2.83748,1.87661,0.0815336,0.795469,-0.0492856,0.598458,0.112144,0.0796209,-0.0309207,0.00109707,0.0225748,0.0617097,-0.00265742,-0.732475,0.110915
1413393242455760384,-0.456159,2.84179,1.87501,0.0748566,0.800471,-0.0540008,0.592222,0.0881518,0.0811465,-0.0297423,0.00109231,0.0225951,0.0617307,-0.00181151,-0.730623,0.107574
1413393242505760512,-0.451516,2.84633,1.8733,0.0675927,0.806425,-0.059371,0.584453,0.0739714,0.0785582,-0.0421592,0.00108948,0.0226061,0.0617561,-0.00188089,-0.723975,0.0993998
1413393242555760384,-0.447862,2.84978,1.87167,0.0621272,0.811643,-0.0632418,0.577387,0.0705456,0.0574702,-0.0153683,0.0011013,0.0225975,0.0617892,-0.000962871,-0.721779,0.096571
1413393242605760512,-0.443964,2.85171,1.87135,0.0580585,0.815748,-0.0663865,0.571644,0.072169,0.0253348,-0.00391617,0.00109812,0.0225973,0.0618216,-0.00762452,-0.723663,0.0932526
1413393242655760384,-0.440354,2.85259,1.87257,0.0560906,0.818433,-0.067621,0.567846,0.0788988,0.00483278,0.0262477,0.00109292,0.0225857,0.061839,-0.0166099,-0.724435,0.102157
1413393242705760512,-0.436507,2.85186,1.87444,0.0540361,0.819269,-0.0692912,0.566637,0.084393,-0.0354684,0.0338547,0.00109065,0.0225886,0.0618662,-0.0199714,-0.724013,0.108742
1413393242755760384,-0.431885,2.84989,1.87698,0.050292,0.819043,-0.0708851,0.56711,0.0928493,-0.0517231,0.0636784,0.00108167,0.0225721,0.061888,-0.021136,-0.721132,0.110809
1413393242805760512,-0.42671,2.84574,1.88046,0.0490063,0.81853,-0.0693017,0.568158,0.107688,-0.0957241,0.0697312,0.00107841,0.0225805,0.0619211,-0.0249022,-0.724953,0.107306
1413393242855760384,-0.421219,2.83955,1.88395,0.0493576,0.818197,-0.064558,0.569166,0.117199,-0.132058,0.0874873,0.00107199,0.0225921,0.0619636,-0.0228115,-0.732571,0.10581
1413393242905760512,-0.415883,2.83216,1.8877,0.0545702,0.818139,-0.054067,0.569867,0.118373,-0.148191,0.0717757,0.00105821,0.0225983,0.0619913,-0.0142709,-0.732853,0.11465
1413393242955760384,-0.409867,2.82465,1.8917,0.0582235,0.819621,-0.0442143,0.568223,0.120498,-0.169709,0.091463,0.00105865,0.0225881,0.062008,-0.0156401,-0.726011,0.115418
1413393243005760512,-0.403559,2.81646,1.89687,0.0601122,0.821801,-0.0336977,0.565592,0.134979,-0.163252,0.0953964,0.00102924,0.0226001,0.0620256,-0.0190996,-0.729176,0.118751
1413393243055760384,-0.39668,2.80824,1.90232,0.0597958,0.82372,-0.0222387,0.563396,0.148533,-0.162495,0.0893186,0.0010245,0.0226031,0.0620558,-0.0245972,-0.728623,0.122344
1413393243105760512,-0.389241,2.79899,1.90772,0.0573259,0.825782,-0.0115378,0.56095,0.163722,-0.174823,0.108356,0.00101055,0.0225981,0.0620773,-0.0275248,-0.73922,0.126651
1413393243155760384,-0.381587,2.7895,1.91377,0.0513452,0.826481,-0.000464082,0.560619,0.182849,-0.1489,0.130335,0.000947878,0.022574,0.0621031,-0.0297542,-0.734016,0.131621
1413393243205760512,-0.37289,2.78236,1.92193,0.0447393,0.824883,0.0110114,0.563423,0.197058,-0.137778,0.163598,0.000941404,0.0225753,0.0621212,-0.0331783,-0.729703,0.141985
1413393243255760384,-0.362173,2.77545,1.92971,0.039046,0.820905,0.0205247,0.569359,0.213632,-0.155504,0.159332,0.000938684,0.0225764,0.062132,-0.0270196,-0.732705,0.135242
1413393243305760512,-0.352892,2.76749,1.93599,0.0338305,0.816458,0.0296771,0.575649,0.205634,-0.137035,0.107279,0.000914443,0.0225708,0.0621501,-0.0187811,-0.734436,0.147419
1413393243355760384,-0.342743,2.75992,1.93985,0.0279577,0.813191,0.0365181,0.580177,0.208523,-0.156247,0.0583377,0.000912931,0.0225732,0.0621768,-0.0170389,-0.732506,0.146369
1413393243405760512,-0.333348,2.75277,1.94281,0.0238101,0.81,0.0421112,0.584431,0.193178,-0.152307,0.0198883,0.000898629,0.0225904,0.0622028,-0.0208301,-0.725672,0.155287
1413393243455760384,-0.324885,2.74723,1.9422,0.0197935,0.808093,0.0471453,0.586831,0.179021,-0.126359,-0.0232639,0.00089321,0.022598,0.0622353,-0.0114965,-0.710393,0.16022
1413393243505760512,-0.317642,2.74049,1.93841,0.0161777,0.806373,0.0510025,0.588982,0.157246,-0.132218,-0.092022,0.000890522,0.0226016,0.0622659,-0.000529334,-0.706705,0.16843
1413393243555760384,-0.311017,2.7337,1.93237,0.0128135,0.805654,0.0541365,0.589768,0.134028,-0.13374,-0.131552,0.000876118,0.0226065,0.0622878,0.00261753,-0.702533,0.177152
1413393243605760512,-0.305952,2.72838,1.92519,0.0107733,0.805581,0.0566505,0.589673,0.113471,-0.120875,-0.13568,0.000887126,0.0226053,0.0623239,0.00344262,-0.687953,0.185131
1413393243655760384,-0.301934,2.72303,1.91676,0.00943225,0.805869,0.0587077,0.5891,0.0885079,-0.110916,-0.145285,0.000892835,0.0226062,0.0623435,0.00578766,-0.677716,0.187874
1413393243705760512,-0.298906,2.71788,1.90931,0.00894387,0.80712,0.0609359,0.587167,0.0685989,-0.0924435,-0.116326,0.000892185,0.0225962,0.0623692,0.010662,-0.672143,0.193978
1413393243755760384,-0.296687,2.71287,1.90301,0.00830935,0.808734,0.0622737,0.58481,0.0472854,-0.091259,-0.107043,0.000896639,0.022599,0.0623912,0.0148212,-0.67282,0.197593
1413393243805760512,-0.296201,2.70879,1.89776,0.00871321,0.810182,0.0637626,0.582635,0.015455,-0.0824349,-0.0789073,0.000891631,0.0226066,0.0624218,0.0208252,-0.671297,0.213275
1413393243855760384,-0.295592,2.70491,1.89434,0.00716317,0.810915,0.0639618,0.581614,0.0087923,-0.0692208,-0.0677775,0.000881768,0.0226126,0.0624358,0.0185311,-0.671301,0.213586
1413393243905760512,-0.296602,2.70203,1.89162,0.00745434,0.811181,0.0643443,0.581197,-0.00442745,-0.0622196,-0.0319268,0.00089909,0.0225807,0.0624674,0.0175736,-0.659244,0.218282
1413393243955760384,-0.298148,2.69994,1.89029,0.00726785,0.811245,0.0647299,0.581067,-0.021342,-0.0452962,-0.0163365,0.000895115,0.0225838,0.0624881,0.0148159,-0.648981,0.228869
1413393244005760512,-0.299881,2.69774,1.88918,0.00730113,0.811528,0.0650314,0.580638,-0.0303673,-0.0374584,-0.0105206,0.000896425,0.0225879,0.0625211,0.0167795,-0.649445,0.234866
1413393244055760384,-0.302096,2.69637,1.88878,0.00865689,0.811191,0.0657929,0.581004,-0.0410602,-0.0216993,0.0073653,0.000897996,0.0226084,0.0625434,0.0211077,-0.642585,0.240317
1413393244105760512,-0.305652,2.69536,1.88999,0.00948139,0.811421,0.0664118,0.5806,-0.0608791,-0.0128991,0.0307466,0.000886408,0.0225787,0.062567,0.0247281,-0.646602,0.252036
1413393244155760384,-0.30914,2.69575,1.89075,0.00998173,0.811658,0.0677728,0.580103,-0.0788002,0.0036623,0.0110866,0.000885778,0.0226075,0.0625906,0.0282174,-0.6431,0.256388
1413393244205760512,-0.313693,2.69625,1.89094,0.00774293,0.811583,0.0701175,0.579963,-0.0854765,0.028013,0.00814068,0.000865706,0.0226086,0.0626124,0.0361813,-0.645572,0.259818
1413393244255760384,-0.318973,2.69809,1.89189,0.00548936,0.812016,0.0746416,0.578816,-0.103143,0.0483014,0.0161113,0.000869039,0.0226207,0.0626455,0.0368719,-0.639509,0.272246
1413393244305760512,-0.324758,2.7006,1.89277,0.0023067,0.812499,0.0804229,0.577384,-0.11427,0.0634514,0.027169,0.000849203,0.0226169,0.0626752,0.0423673,-0.646208,0.278563
1413393244355760384,-0.33085,2.70423,1.89327,-0.00265358,0.81282,0.0868957,0.575991,-0.117213,0.0894139,0.0126251,0.000838824,0.0226181,0.0626906,0.0432752,-0.645911,0.278873
1413393244405760512,-0.337404,2.70825,1.89336,-0.00773499,0.811915,0.0923145,0.576379,-0.126193,0.0771252,-0.0196099,0.000842631,0.0226217,0.0627117,0.0446759,-0.647317,0.287774
1413393244455760384,-0.345084,2.71297,1.8912,-0.0135045,0.810477,0.0963013,0.577643,-0.154915,0.0851077,-0.0665349,0.000821867,0.0226262,0.0627309,0.0552036,-0.645555,0.295447
1413393244505760512,-0.353075,2.71783,1.88578,-0.0192764,0.809779,0.0996847,0.577884,-0.165507,0.0930468,-0.134625,0.000824582,0.0226177,0.0627591,0.0597878,-0.641001,0.289319
1413393244555760384,-0.361576,2.72244,1.87728,-0.024467,0.808853,0.101803,0.578615,-0.175251,0.0781498,-0.194568,0.000827179,0.022613,0.0627914,0.0527377,-0.637544,0.284754
1413393244605760512,-0.369923,2.72559,1.86707,-0.0292191,0.80915,0.10392,0.577601,-0.170567,0.071676,-0.225561,0.000813851,0.0226233,0.0628111,0.0498802,-0.654086,0.281217
1413393244655760384,-0.378479,2.72922,1.85634,-0.0335507,0.809505,0.105666,0.576551,-0.167143,0.0674556,-0.200439,0.000808743,0.0226227,0.0628434,0.0520361,-0.657893,0.283529
1413393244705760512,-0.387917,2.73351,1.84845,-0.0365465,0.808767,0.107421,0.577079,-0.213167,0.0599288,-0.142256,0.000812395,0.0226103,0.0628714,0.056677,-0.653608,0.286052
1413393244755760384,-0.399206,2.73723,1.84266,-0.0415445,0.809681,0.10671,0.57559,-0.223509,0.0552872,-0.123889,0.000802101,0.0226151,0.0628856,0.0362176,-0.649568,0.283015
1413393244805760512,-0.410663,2.74133,1.84078,-0.0466596,0.8099,0.105218,0.575164,-0.216217,0.0601361,-0.0395754,0.000794734,0.0226206,0.0629069,0.0107105,-0.641839,0.287196
1413393244855760384,-0.422651,2.74522,1.84296,-0.0502271,0.81089,0.104206,0.573651,-0.227861,0.0690888,0.066172,0.000800914,0.0226228,0.0629381,-0.00584252,-0.627187,0.297889
1413393244905760512,-0.433561,2.74877,1.84893,-0.0526757,0.810992,0.102954,0.573514,-0.189644,0.0590445,0.15886,0.000806696,0.0226257,0.062962,-0.00621433,-0.622258,0.304898
1413393244955760384,-0.44557,2.75206,1.85836,-0.0529553,0.810767,0.103084,0.573782,-0.22143,0.0510675,0.222976,0.000805461,0.0226228,0.0629992,0.00826186,-0.609622,0.330839
1413393245005760512,-0.459032,2.753,1.86772,-0.0504973,0.812059,0.104838,0.571856,-0.241221,0.0230506,0.209579,0.000801593,0.0226306,0.0630251,0.0176512,-0.609224,0.353025
1413393245055760384,-0.472549,2.75347,1.87689,-0.0483895,0.814202,0.105419,0.568877,-0.254915,0.00622407,0.176805,0.000789086,0.0226203,0.063042,0.024178,-0.607106,0.364282
1413393245105760512,-0.485928,2.75374,1.88346,-0.0456939,0.816646,0.106676,0.565351,-0.25928,0.000909321,0.117091,0.000781451,0.0226238,0.0630636,0.0353582,-0.598507,0.368477
1413393245155760384,-0.498359,2.75321,1.88753,-0.0439698,0.819578,0.106716,0.561223,-0.246875,-0.0153942,0.0702172,0.000777003,0.0226272,0.0630746,0.0368479,-0.595669,0.366101
1413393245205760512,-0.510713,2.75262,1.88948,-0.0419127,0.822514,0.106961,0.557023,-0.242406,-0.0189872,0.0253477,0.000774774,0.0226317,0.0631076,0.042327,-0.587708,0.369016
1413393245255760384,-0.522315,2.75208,1.88912,-0.0394846,0.823697,0.107922,0.555264,-0.227776,-0.0267341,-0.0319268,0.0007811,0.0226271,0.0631341,0.0445673,-0.585502,0.363498
1413393245305760512,-0.533919,2.75038,1.88563,-0.0372504,0.824326,0.108893,0.554293,-0.214943,-0.0284183,-0.091828,0.000774424,0.022622,0.0631613,0.049627,-0.586728,0.370997
1413393245355760384,-0.544828,2.7485,1.88022,-0.0349293,0.823757,0.110264,0.555019,-0.206749,-0.0287952,-0.127357,0.000773311,0.0226164,0.0631857,0.0474211,-0.585767,0.378995
1413393245405760512,-0.555245,2.74811,1.87265,-0.0327065,0.822947,0.111197,0.55617,-0.18974,-0.019653,-0.162792,0.000785686,0.0226196,0.0632069,0.0526588,-0.567393,0.377495
1413393245455760384,-0.564746,2.7461,1.86417,-0.0302428,0.821387,0.11285,0.558277,-0.189453,-0.0197102,-0.204946,0.000775679,0.0226313,0.063239,0.0563945,-0.574471,0.378122
1413393245505760512,-0.574736,2.74419,1.85288,-0.0284021,0.819995,0.113996,0.560184,-0.187078,-0.01751,-0.229835,0.0007713,0.0226281,0.0632713,0.0596586,-0.584601,0.382499
1413393245555760384,-0.58366,2.74257,1.84136,-0.0263018,0.81787,0.115149,0.563149,-0.176388,-0.0255657,-0.224227,0.000770371,0.0226198,0.0632946,0.0617961,-0.594798,0.378994
1413393245605760512,-0.592258,2.74166,1.83028,-0.0241713,0.815952,0.115948,0.565857,-0.171288,-0.0123993,-0.221878,0.000762466,0.0226321,0.0633267,0.0622313,-0.595395,0.375965
1413393245655760384,-0.600639,2.7418,1.81978,-0.0221937,0.814393,0.116506,0.568065,-0.169519,0.00891156,-0.215044,0.0007606,0.0226331,0.0633533,0.0643117,-0.587748,0.372524
1413393245705760512,-0.6097,2.74276,1.80948,-0.0193076,0.813329,0.116995,0.569592,-0.174795,0.0168455,-0.190143,0.000772456,0.022626,0.0633814,0.0669888,-0.592359,0.381245
1413393245755760384,-0.618932,2.74404,1.79953,-0.0171577,0.813676,0.116316,0.569304,-0.18535,0.0313233,-0.182283,0.000768157,0.0226286,0.0634027,0.0738691,-0.592847,0.383614
1413393245805760512,-0.628707,2.74592,1.79042,-0.0160764,0.814318,0.114699,0.568746,-0.193932,0.0491414,-0.170409,0.000759274,0.0226212,0.0634247,0.0801631,-0.591606,0.387139
1413393245855760384,-0.637903,2.74866,1.78224,-0.0168903,0.814745,0.111784,0.568691,-0.189363,0.0666537,-0.15141,0.000754856,0.0226207,0.0634455,0.0810634,-0.590101,0.379723
1413393245905760512,-0.6477,2.75238,1.77489,-0.018565,0.816326,0.108042,0.567093,-0.192955,0.0769407,-0.152426,0.000752937,0.0226196,0.0634723,0.0804228,-0.590196,0.38403
