#timestamp, p_RS_R_x [m], p_RS_R_y [m], p_RS_R_z [m], q_RS_w [], q_RS_x [], q_RS_y [], q_RS_z [], v_RS_R_x [m s^-1], v_RS_R_y [m s^-1], v_RS_R_z [m s^-1], b_w_RS_S_x [rad s^-1], b_w_RS_S_y [rad s^-1], b_w_RS_S_z [rad s^-1], b_a_RS_S_x [m s^-2], b_a_RS_S_y [m s^-2], b_a_RS_S_z [m s^-2]
1413393212255760384,-1.09068,0.507956,1.33668,0.602701,0.00411939,-0.797914,0.00827636,-0.00354484,0.00290711,0.00420855,-0.00229896,0.0220698,0.0715412,-0.000524894,4.74743e-05,0.000255128
1413393212305760512,-1.07657,0.491977,1.32939,0.60297,-0.00243987,-0.797751,0.00391242,-0.00782238,-0.00688747,-0.00987593,-2.55516e-05,0.000895621,0.00371389,-6.16598e-05,3.83233e-05,-9.94843e-06
1413393212355760384,-1.07822,0.490932,1.33362,0.603242,0.000497838,-0.797534,0.00621324,-0.00760415,-0.00595613,-0.00197498,-9.0997e-05,0.00133781,0.00481337,-0.000248896,7.95112e-05,-1.48162e-05
1413393212405760512,-1.07866,0.491246,1.33567,0.602881,0.000959186,-0.797807,0.00616781,-0.00471498,-0.00136435,-0.000640091,-0.000132229,0.00167172,0.00588634,-0.000597864,0.000118519,1.17759e-05
1413393212455760384,-1.07769,0.49098,1.32779,0.603119,-0.00257811,-0.797638,0.00382664,-0.00547267,-0.00828711,-0.0112085,-2.55564e-05,0.000895768,0.00371453,-0.000139688,0.000100173,-2.34915e-05
1413393212505760512,-1.07882,0.491502,1.33629,0.602849,0.0012676,-0.797831,0.00613355,-0.0019519,-0.00305745,0.00224648,-0.000156117,0.00196441,0.00695994,-0.00100725,0.000190639,6.00766e-05
1413393212555760384,-1.0791,0.490186,1.33296,0.603285,0.000588922,-0.797502,0.00609592,-0.00266227,-0.00656079,-0.00586483,-9.10201e-05,0.00133808,0.00481435,-0.000468209,0.000174147,-1.80191e-05
1413393212605760512,-1.07839,0.490168,1.32587,0.603378,-0.002556,-0.797442,0.003786,-0.00397554,-0.0013445,-0.014493,-2.55627e-05,0.000895851,0.00371489,-0.000144796,0.000125682,-3.56463e-05
1413393212655760384,-1.07908,0.491324,1.33619,0.602808,0.00131071,-0.797863,0.00593258,-0.00301231,-0.00147158,-0.0019372,-0.000167863,0.00223121,0.00799735,-0.00128867,0.000307599,0.000146061
1413393212705760512,-1.07936,0.490694,1.33514,0.602957,0.000990824,-0.79775,0.00614372,0.000190916,-0.00399988,-0.00511179,-0.000132274,0.00167217,0.00588795,-0.00105371,0.000208764,1.87208e-06
1413393212755760384,-1.07924,0.489909,1.3315,0.603462,0.000550437,-0.797369,0.00601633,0.00219909,0.000655955,-0.00939068,-9.10381e-05,0.00133822,0.00481487,-0.00047654,0.000184001,-1.93221e-05
1413393212805760512,-1.07925,0.491063,1.3362,0.602861,0.00126774,-0.797822,0.00609188,-0.000343907,-0.00321647,-0.00270451,-0.000209329,0.00249293,0.00900192,-0.00234189,0.000435699,0.000489203
1413393212855760384,-1.07922,0.491014,1.33539,0.602948,0.00123541,-0.797756,0.00614975,0.000584469,6.33078e-05,-0.00493468,-0.000156171,0.00196495,0.00696189,-0.00123617,0.000299499,0.000118164
1413393212905760512,-1.07917,0.490519,1.33399,0.603085,0.000811098,-0.797653,0.00610216,0.00119475,0.000547256,-0.00724125,-0.000132293,0.00167231,0.00588845,-0.00103868,0.000218489,-1.92819e-05
1413393212955760384,-1.07919,0.490629,1.33615,0.602794,0.00120547,-0.797873,0.00604679,0.000466163,-0.00321295,-0.00274105,-0.000239872,0.00279173,0.00998866,-0.00487265,0.000770158,0.00122018
1413393213005760512,-1.07901,0.490806,1.33479,0.603001,0.00122448,-0.797717,0.0060337,0.00286897,-2.49978e-05,-0.00562553,-0.000167911,0.00223172,0.00799929,-0.00113558,0.000584983,0.0003606
1413393213055760384,-1.07886,0.490851,1.33413,0.603136,0.00106755,-0.797614,0.00617524,0.00266461,-0.000100715,-0.00788579,-0.00015619,0.00196508,0.0069624,-0.00116615,0.000350856,0.000154667
1413393213105760512,-1.07897,0.490512,1.33632,0.602811,0.00124768,-0.79786,0.006109,0.000253386,-0.00143351,-0.00543976,-0.000250287,0.00307512,0.0109439,-0.00688173,0.00113129,0.00150793
1413393213155760384,-1.0788,0.490738,1.33455,0.603046,0.00114206,-0.797682,0.00612412,0.00130222,0.000423254,-0.00804354,-0.000209388,0.00249342,0.00900384,-0.00240599,0.00071174,0.00071026
1413393213205760512,-1.07853,0.490655,1.33294,0.60322,0.00103766,-0.797551,0.00615929,0.00293504,0.00118983,-0.0115403,-0.000167927,0.00223185,0.00799979,-0.0010717,0.000658679,0.000409989
1413393213255760384,-1.07877,0.490551,1.33618,0.602801,0.0012386,-0.797868,0.00601712,0.00129306,-0.000332921,-0.00126177,-0.000264385,0.00332342,0.0118437,-0.00813765,0.00155871,0.00148448
1413393213305760512,-1.07868,0.490456,1.33462,0.603044,0.00119657,-0.797684,0.006062,0.00123414,-0.00202587,-0.00579507,-0.000239934,0.00279223,0.00999056,-0.00536036,0.00111213,0.00139995
1413393213355760384,-1.07825,0.490787,1.33256,0.603333,0.000994309,-0.797464,0.00627955,0.00400914,0.00213811,-0.014347,-0.000209408,0.00249354,0.00900433,-0.00237872,0.000735019,0.000736965
1413393213405760512,-1.07861,0.490465,1.33591,0.602853,0.00117808,-0.797829,0.00607051,0.000681276,0.000384509,-0.00379221,-0.000303244,0.00353919,0.0127255,-0.00881919,0.00199109,0.00140567
1413393213455760384,-1.07863,0.490374,1.33477,0.60301,0.00106542,-0.797709,0.00621237,0.000800402,-0.00185327,-0.00852608,-0.000250343,0.00307561,0.0109458,-0.00739825,0.00143641,0.00131738
1413393213505760512,-1.07819,0.490504,1.33282,0.603255,0.00101256,-0.797523,0.0062542,0.00225438,-0.000332661,-0.011431,-0.000239956,0.00279235,0.00999106,-0.00537994,0.00116611,0.00138992
1413393213555760384,-1.07861,0.490309,1.33562,0.602831,0.00124677,-0.797845,0.00610547,7.88809e-05,-0.000511176,-0.00321188,-0.000311414,0.00380416,0.0136042,-0.0112522,0.00271503,0.00150682
1413393213605760512,-1.07862,0.490311,1.33439,0.603021,0.0011121,-0.797702,0.00612084,0.00190309,0.00117998,-0.00643409,-0.000264435,0.0033239,0.0118456,-0.008389,0.00186455,0.00113194
1413393213655760384,-1.07829,0.490368,1.3331,0.603224,0.00106153,-0.797548,0.00616086,0.00358907,0.000392707,-0.00968097,-0.000250359,0.00307574,0.0109463,-0.00740786,0.00146829,0.00125093
1413393213705760512,-1.07853,0.490185,1.33545,0.602885,0.00115843,-0.797804,0.00611496,0.000926818,-0.00310562,-0.00251567,-0.000334318,0.00406546,0.0144551,-0.0138226,0.00281654,0.00213944
1413393213755760384,-1.07838,0.490055,1.3338,0.603076,0.00111407,-0.797659,0.0061369,0.00298177,-0.00106639,-0.00835362,-0.000303303,0.00353965,0.0127273,-0.00880032,0.00226615,0.00116173
1413393213805760512,-1.0781,0.49016,1.33264,0.603233,0.00104946,-0.797541,0.00614623,0.0036154,0.000407964,-0.0123226,-0.000264449,0.00332402,0.011846,-0.00834865,0.00188684,0.00108263
1413393213855760384,-1.07841,0.490037,1.3353,0.602905,0.001041,-0.797789,0.00608722,-7.16553e-05,-0.00134734,-0.00215543,-0.000363626,0.00432987,0.015312,-0.0161557,0.00260672,0.00307257
1413393213905760512,-1.0783,0.489692,1.33371,0.603031,0.00109797,-0.797694,0.00609707,0.00106831,-0.00368142,-0.00725337,-0.000311465,0.00380461,0.0136059,-0.0114893,0.00309734,0.00124
1413393213955760384,-1.07783,0.489768,1.33182,0.603234,0.0010575,-0.79754,0.00620454,0.00400657,-0.00243817,-0.00923622,-0.000303325,0.00353975,0.0127277,-0.00874391,0.00230423,0.0011644
1413393214005760512,-1.07846,0.490009,1.33591,0.602614,0.00107206,-0.798009,0.0061445,0.000119107,0.01113,0.00429853,-0.000392104,0.00460781,0.0161454,-0.0188388,0.00209302,0.00341055
1413393214055760384,-1.07842,0.489641,1.33409,0.602968,0.000889933,-0.797743,0.0059071,0.00213962,0.00696111,-0.00373199,-0.000334377,0.00406591,0.0144568,-0.0141921,0.00296722,0.00210365
1413393214105760512,-1.07817,0.489484,1.33219,0.602953,0.000909657,-0.797753,0.00607286,0.00151397,0.0017608,-0.00803443,-0.000311488,0.00380472,0.0136064,-0.0114965,0.00315725,0.00119565
1413393214155760384,-1.07848,0.490458,1.3361,0.602645,0.000948474,-0.797987,0.0060035,0.00199196,-0.000151221,-0.000154765,-0.000423285,0.00485086,0.016935,-0.0200242,0.00190251,0.00356354
1413393214205760512,-1.0784,0.489846,1.33432,0.602791,0.00087127,-0.797875,0.00614831,0.00066253,0.000842888,-0.00556018,-0.000363689,0.00433033,0.0153138,-0.0165101,0.00254083,0.00321773
1413393214255760384,-1.07829,0.489589,1.33255,0.603103,0.00101167,-0.79764,0.00599196,0.00147415,-0.00133577,-0.0101606,-0.000334395,0.00406602,0.0144573,-0.0141908,0.00294451,0.00211851
1413393214305760512,-1.07841,0.490567,1.33608,0.602652,0.000966971,-0.797981,0.00611824,-2.85818e-05,-0.00381478,-0.00365685,-0.000446058,0.00509098,0.0177128,-0.0205369,0.00233036,0.00346456
1413393214355760384,-1.07835,0.490203,1.33496,0.602868,0.000880942,-0.797816,0.00622518,0.000626023,0.00128279,-0.00466494,-0.000392165,0.00460829,0.0161471,-0.0192673,0.00180563,0.00312934
1413393214405760512,-1.07798,0.489827,1.33283,0.603096,0.000887052,-0.797645,0.00612725,0.00403667,-0.000962584,-0.00959883,-0.000363707,0.00433045,0.0153142,-0.0165041,0.0025218,0.0032179
1413393214455760384,-1.07828,0.490629,1.33588,0.602771,0.000930063,-0.797889,0.00627547,0.000670529,0.000944692,-0.00196174,-0.000471279,0.00529337,0.0184153,-0.0202045,0.00282656,0.00344897
1413393214505760512,-1.07814,0.49071,1.33524,0.602835,0.000965261,-0.797841,0.00618366,0.00194299,0.001079,-0.00152656,-0.000423349,0.00485133,0.0169367,-0.0201596,0.00173775,0.00314822
1413393214555760384,-1.07784,0.4905,1.33404,0.60303,0.000842924,-0.797693,0.00638677,0.00448121,-0.000191806,-0.00510685,-0.000392183,0.00460841,0.0161476,-0.0192814,0.00175534,0.00301045
1413393214605760512,-1.07815,0.490672,1.33563,0.602776,0.00103377,-0.797886,0.00618827,0.000279655,0.000700526,-0.00217478,-0.000488281,0.00551273,0.0191807,-0.0202775,0.00320175,0.00447264
1413393214655760384,-1.07795,0.490833,1.33532,0.602849,0.00100531,-0.79783,0.00625424,0.00275,-0.00148522,-0.00182512,-0.000446121,0.00509146,0.0177145,-0.0203504,0.00249371,0.00318993
1413393214705760512,-1.07762,0.490896,1.33454,0.603007,0.000926597,-0.79771,0.00639387,0.00168097,0.00130702,-0.00553908,-0.000423369,0.00485145,0.0169372,-0.0200788,0.00173759,0.00312268
1413393214755760384,-1.078,0.490625,1.33563,0.602831,0.00101034,-0.797845,0.00617236,0.000660551,-0.00138524,-0.00216334,-0.000520963,0.00571143,0.019874,-0.0200399,0.00378379,0.00450021
1413393214805760512,-1.07795,0.490653,1.33503,0.602911,0.000932907,-0.797783,0.00628404,0.000726834,1.13909e-05,-0.00294502,-0.000471346,0.00529383,0.0184169,-0.0196791,0.00316893,0.00350471
1413393214855760384,-1.07771,0.490868,1.33464,0.602989,0.000917209,-0.797724,0.0063253,0.00100288,0.00195947,-0.00325915,-0.000446143,0.00509159,0.0177149,-0.020234,0.00254666,0.00320154
1413393214905760512,-1.07789,0.490664,1.33565,0.602839,0.00104863,-0.797839,0.00617505,0.000852731,-0.00120654,-0.00110686,-0.000546724,0.0059159,0.0206051,-0.0197257,0.00437989,0.00394168
1413393214955760384,-1.07784,0.490548,1.33492,0.602895,0.00091942,-0.797796,0.00623573,0.00138829,0.000103409,-0.000478959,-0.000488346,0.0055132,0.0191823,-0.0197705,0.00358886,0.00496711
1413393215005760512,-1.07778,0.49069,1.33458,0.602953,0.000856329,-0.797752,0.00631899,0.00101772,0.0014676,-0.000708074,-0.00047137,0.00529395,0.0184174,-0.0195391,0.00321166,0.00352735
1413393215055760384,-1.0778,0.490665,1.33607,0.602611,0.000974001,-0.798013,0.0059162,-0.00159406,-0.00393564,0.00226348,-0.00055533,0.00610263,0.0212582,-0.0195198,0.00597073,0.00228573
1413393215105760512,-1.0778,0.490537,1.33525,0.602635,0.000864016,-0.79799,0.00648786,-0.000310712,-0.00731683,-0.00464333,-0.000521033,0.00571188,0.0198756,-0.0195933,0.00414548,0.00470103
1413393215155760384,-1.07767,0.49065,1.33461,0.602857,0.000895383,-0.797823,0.00642365,0.00115364,-6.84747e-05,-0.00402401,-0.000488364,0.00551332,0.0191827,-0.0196795,0.00365175,0.00507252
1413393215205760512,-1.07813,0.490265,1.33621,0.602531,0.00111121,-0.798071,0.0061691,-0.00308511,-0.00390849,-0.00421136,-0.000533629,0.00630503,0.0219926,-0.0215305,0.00700123,0.000241986
1413393215255760384,-1.07802,0.490489,1.33517,0.602733,0.000982143,-0.797918,0.00633085,-0.000597566,-0.000817813,-0.00643975,-0.000546795,0.00591634,0.0206067,-0.0192975,0.00464068,0.00370018
1413393215305760512,-1.07771,0.490695,1.33455,0.602814,0.0009373,-0.797856,0.00636735,0.000760676,0.00199914,-0.00613076,-0.000521056,0.00571199,0.019876,-0.0195027,0.00419061,0.00468583
1413393215355760384,-1.07853,0.489883,1.33614,0.602566,0.00103109,-0.798045,0.00616593,-0.00176128,-0.00349462,-0.00334764,-0.000545756,0.00651616,0.0226606,-0.0242872,0.00693765,-0.00064056
1413393215405760512,-1.07826,0.490171,1.33516,0.60255,0.000825169,-0.798056,0.00632312,0.000342268,0.000614872,-0.0039451,-0.000555396,0.00610305,0.0212598,-0.0191009,0.00634666,0.00153128
1413393215455760384,-1.07773,0.490728,1.33456,0.602497,0.000928406,-0.798095,0.00642156,0.00116455,0.00398427,-0.00186248,-0.000546821,0.00591646,0.0206071,-0.0192079,0.00463873,0.00363817
1413393215505760512,-1.07889,0.489564,1.3361,0.602083,0.000898457,-0.798409,0.00623043,-0.00384764,-0.00175705,0.000479819,-0.000567499,0.00670228,0.0232535,-0.0268733,0.00731858,-0.000882745
1413393215555760384,-1.07913,0.489469,1.33563,0.602092,0.000828024,-0.798403,0.00621757,-0.00664653,-0.00163008,-0.000294944,-0.000533672,0.00630545,0.0219942,-0.0217483,0.00713972,-0.000821526
1413393215605760512,-1.07862,0.490152,1.33445,0.602211,0.000888201,-0.798313,0.00621827,-0.003614,-0.000229309,-0.00102248,-0.000555418,0.00610316,0.0212601,-0.0190226,0.00638028,0.00140161
1413393215655760384,-1.07997,0.489222,1.33622,0.601685,0.00074573,-0.798709,0.00622188,-0.00753937,1.40873e-06,0.00419546,-0.000600719,0.00688797,0.0238809,-0.0291323,0.00839177,-0.000302446
1413393215705760512,-1.08037,0.489121,1.33603,0.60122,0.000597943,-0.799059,0.00633626,-0.00225932,-0.00249178,-0.00733853,-0.000545798,0.00651659,0.0226621,-0.0250192,0.00676024,-0.00145295
1413393215755760384,-1.07995,0.489221,1.33479,0.60092,0.000582393,-0.799284,0.00629379,0.00329038,0.00095708,-0.0143278,-0.000533685,0.00630555,0.0219946,-0.0217989,0.00707175,-0.000988655
1413393215805760512,-1.08037,0.48855,1.3363,0.600225,0.000895024,-0.799808,0.00606024,0.0040007,-0.00291239,0.00676901,-0.000586864,0.00701194,0.0245287,-0.0319389,0.0112492,0.000765556
1413393215855760384,-1.08003,0.489034,1.33591,0.600073,0.000847204,-0.799922,0.00614456,0.00211973,0.000431106,0.00166746,-0.000567547,0.0067027,0.023255,-0.0276312,0.00730247,-0.00121165
1413393215905760512,-1.0797,0.489151,1.33494,0.600146,0.00070582,-0.799865,0.00635321,0.00283326,0.000161622,-0.00159876,-0.00054581,0.0065167,0.0226625,-0.0250888,0.00671076,-0.00151092
1413393215955760384,-1.08022,0.488404,1.33609,0.599813,0.000758476,-0.800115,0.00640835,0.00206224,-0.000783383,0.00264368,-0.000588387,0.0072032,0.0251014,-0.0332981,0.0143366,0.00253177
1413393216005760512,-1.07981,0.488942,1.33582,0.599996,0.000811195,-0.799979,0.00621135,0.0073643,-0.000280358,0.00157624,-0.000600784,0.00688838,0.0238824,-0.029573,0.00896088,3.37359e-05
1413393216055760384,-1.07963,0.489105,1.33505,0.600208,0.000987167,-0.799821,0.00598881,-0.00013141,0.00262573,-0.0052298,-0.000567566,0.0067028,0.0232554,-0.0276459,0.00734993,-0.00117382
1413393216105760512,-1.08035,0.487659,1.33574,0.599913,0.00106249,-0.800044,0.00576403,-0.00269077,-0.00167737,-0.00934032,-0.000599246,0.0073568,0.0257055,-0.035193,0.0162361,0.00560429
1413393216155760384,-1.08031,0.48802,1.33548,0.600384,0.00105572,-0.799691,0.00581775,-0.00278005,-0.00179524,-0.00702561,-0.000586915,0.0070123,0.0245302,-0.0325355,0.0127632,0.00153349
1413393216205760512,-1.08001,0.488835,1.3346,0.600316,0.00110503,-0.799741,0.00586259,-0.00311977,0.00599643,-0.0124811,-0.000600812,0.00688848,0.0238828,-0.0295255,0.00909932,0.000115709
1413393216255760384,-1.08108,0.486949,1.33546,0.599136,0.00132224,-0.800625,0.0058652,-0.0109357,0.0014044,-0.00137691,-0.000609752,0.00747663,0.0262683,-0.0364277,0.0169016,0.00943737
1413393216305760512,-1.08137,0.487574,1.33526,0.598132,0.00120925,-0.801374,0.00602259,-0.00733186,-0.00361622,-0.00602562,-0.000588433,0.00720357,0.0251028,-0.033653,0.0161717,0.0036031
1413393216355760384,-1.08144,0.488339,1.33434,0.597831,0.000675109,-0.801597,0.00633422,0.000711637,0.00753977,-0.0126356,-0.000586931,0.00701238,0.0245306,-0.0326141,0.0130404,0.00167598
1413393216405760512,-1.08152,0.486791,1.33473,0.597224,0.000935299,-0.802049,0.00630925,0.00154053,-0.00752448,-0.0133401,-0.000636103,0.00763821,0.0268069,-0.0366866,0.0181316,0.0148031
1413393216455760384,-1.08168,0.486913,1.33461,0.597383,0.00116613,-0.801934,0.00596303,-0.00485467,-0.00166644,0.00163346,-0.000599288,0.00735715,0.025707,-0.0354736,0.0176098,0.00713086
1413393216505760512,-1.08194,0.487653,1.3336,0.595807,0.000658331,-0.803108,0.00565234,0.000452111,0.00948718,-0.000662819,-0.000588446,0.00720366,0.0251032,-0.0336101,0.0163629,0.00380063
1413393216555760384,-1.08179,0.486944,1.33455,0.594998,0.000273685,-0.803713,0.00486815,0.0015186,0.00993734,-0.0263923,-0.000656115,0.00779324,0.027348,-0.0394064,0.0184571,0.0203505
1413393216605760512,-1.08168,0.487668,1.3335,0.594654,-0.00121275,-0.803965,0.00504978,-0.00296494,0.0171208,-0.0225709,-0.000609793,0.00747696,0.0262698,-0.0364708,0.0174782,0.011239
1413393216655760384,-1.0823,0.48832,1.33298,0.595467,-0.00160405,-0.803368,0.00420353,-0.00661105,0.00362983,0.00936778,-0.000599305,0.00735724,0.0257074,-0.0354393,0.0176667,0.00732987
1413393216705760512,-1.08138,0.488608,1.33613,0.595893,-0.000776196,-0.803062,0.00158246,0.0156395,0.0156684,0.0282765,-0.000685743,0.00799813,0.0278891,-0.0415995,0.0181484,0.0246229
1413393216755760384,-1.08092,0.488958,1.33589,0.596379,-0.000776651,-0.802702,-0.00164623,0.00706079,0.0124428,0.0351587,-0.000636159,0.00763854,0.0268083,-0.0364912,0.0187801,0.0170225
1413393216805760512,-1.08094,0.48969,1.33791,0.597065,-0.000402288,-0.802181,-0.00436035,0.00868776,0.00366466,0.0722944,-0.00060981,0.00747703,0.0262701,-0.0364327,0.0174949,0.0114473
1413393216855760384,-1.0786,0.490506,1.34494,0.597642,0.0001127,-0.801738,-0.00640725,0.0215071,0.00538104,0.0868107,-0.000726696,0.00818666,0.0283875,-0.0420588,0.0182944,0.0259179
1413393216905760512,-1.07775,0.489614,1.34845,0.599735,5.03761e-05,-0.800151,-0.00877403,0.0297473,-0.00696634,0.117146,-0.000656172,0.00779357,0.0273494,-0.0396822,0.0190748,0.0225572
1413393216955760384,-1.07636,0.489385,1.35281,0.600069,0.000981567,-0.799859,-0.0119053,0.0355884,-0.0072424,0.126463,-0.000636177,0.00763863,0.0268086,-0.0364387,0.0188984,0.0173243
1413393217005760512,-1.07289,0.490062,1.36554,0.598909,0.00154926,-0.800699,-0.0136839,0.0536172,-0.0170111,0.15646,-0.000759681,0.00834765,0.0289238,-0.0447272,0.0178582,0.0255815
1413393217055760384,-1.07044,0.487713,1.37269,0.597315,0.00140446,-0.80187,-0.0147277,0.0646102,-0.0407672,0.217767,-0.000685802,0.0079985,0.0278904,-0.0418641,0.0183669,0.0260533
1413393217105760512,-1.06727,0.485006,1.38301,0.596611,0.000739725,-0.802388,-0.0151562,0.079437,-0.0467837,0.26221,-0.000656186,0.00779365,0.0273497,-0.0397297,0.019111,0.0227724
1413393217155760384,-1.0621,0.484015,1.40252,0.594633,0.000371978,-0.803862,-0.0147874,0.0859048,-0.0684051,0.277796,-0.000768661,0.00852481,0.0294455,-0.0471197,0.0176382,0.0235157
1413393217205760512,-1.05736,0.479444,1.41318,0.594292,-0.000155303,-0.804106,-0.0151844,0.101854,-0.0811666,0.259951,-0.000726761,0.00818704,0.0283889,-0.0418669,0.0182507,0.0260511
1413393217255760384,-1.05208,0.474766,1.42443,0.594779,-0.000171601,-0.803718,-0.0165877,0.108654,-0.0885245,0.240458,-0.000685815,0.00799859,0.0278908,-0.0418251,0.0183465,0.0261245
1413393217305760512,-1.04652,0.471776,1.44135,0.593484,0.000534305,-0.804656,-0.0175025,0.114121,-0.103126,0.211932,-0.000796092,0.00874206,0.0299017,-0.0492753,0.0183623,0.0215158
1413393217355760384,-1.04036,0.465402,1.44831,0.593034,0.000342576,-0.804987,-0.0174865,0.130152,-0.119402,0.173639,-0.00075975,0.00834802,0.0289251,-0.0447419,0.0175925,0.0246412
1413393217405760512,-1.03278,0.458673,1.45412,0.592391,7.9925e-05,-0.805447,-0.0181047,0.155018,-0.124361,0.155744,-0.000726783,0.00818715,0.0283892,-0.0417596,0.018238,0.0259501
1413393217455760384,-1.02623,0.452999,1.46772,0.590637,0.000226358,-0.806732,-0.0181973,0.156109,-0.150076,0.146614,-0.000810728,0.00892363,0.0303164,-0.0494222,0.0211263,0.0203796
1413393217505760512,-1.01802,0.444814,1.47292,0.590503,0.00063003,-0.806825,-0.0184576,0.163197,-0.169699,0.129602,-0.00076872,0.00852516,0.0294469,-0.0475542,0.0172211,0.0219522
1413393217555760384,-1.00834,0.436019,1.47635,0.590876,3.11423e-05,-0.806543,-0.0188265,0.192483,-0.169592,0.100904,-0.000759773,0.0083481,0.0289254,-0.0447706,0.0175322,0.0244333
1413393217605760512,-1.00086,0.426898,1.48491,0.590376,0.000800754,-0.806894,-0.0194323,0.184389,-0.207498,0.0864655,-0.000815287,0.00908834,0.0308185,-0.0478427,0.0236768,0.0195496
1413393217655760384,-0.990648,0.416831,1.48871,0.590472,0.000941036,-0.806832,-0.0191064,0.199047,-0.210807,0.092178,-0.000796159,0.00874244,0.029903,-0.049828,0.0181982,0.0201625
1413393217705760512,-0.979647,0.405645,1.49256,0.590844,0.000604117,-0.806554,-0.0193607,0.208396,-0.229132,0.131262,-0.000768738,0.00852523,0.0294472,-0.0476204,0.0171425,0.0217683
1413393217755760384,-0.971649,0.392466,1.50188,0.590867,0.000794478,-0.80654,-0.0192102,0.206731,-0.264719,0.176755,-0.000827005,0.00917935,0.0313375,-0.0439703,0.0251867,0.019744
1413393217805760512,-0.960101,0.379909,1.51208,0.590818,0.000556957,-0.806587,-0.0187631,0.215204,-0.267799,0.209693,-0.000810801,0.00892403,0.0303176,-0.049275,0.0218647,0.0199353
1413393217855760384,-0.948308,0.36685,1.52267,0.590985,-0.00041761,-0.806485,-0.0178796,0.226092,-0.275699,0.233282,-0.000796183,0.00874254,0.0299033,-0.0498264,0.0182297,0.0200846
1413393217905760512,-0.93979,0.349623,1.53542,0.590932,-0.000383983,-0.806528,-0.0176918,0.219903,-0.309219,0.269704,-0.000829114,0.00928806,0.0318061,-0.0433546,0.028549,0.0177715
1413393217955760384,-0.927463,0.335418,1.55016,0.591701,-0.000793086,-0.80597,-0.0173778,0.231258,-0.305957,0.291255,-0.000815365,0.00908875,0.0308197,-0.0467812,0.0248948,0.019782
1413393218005760512,-0.914741,0.320378,1.56452,0.591509,-0.00200197,-0.806138,-0.015962,0.239793,-0.320425,0.270448,-0.000810833,0.00892414,0.0303179,-0.049081,0.0220746,0.0199834
1413393218055760384,-0.90539,0.301084,1.57667,0.591732,-0.00385597,-0.806015,-0.013353,0.238284,-0.340012,0.217347,-0.000790765,0.00947476,0.0323152,-0.0451132,0.0312445,0.0157255
1413393218105760512,-0.891676,0.285997,1.5855,0.59163,-0.00658926,-0.806122,-0.00993331,0.248614,-0.326052,0.188803,-0.00082709,0.00917973,0.0313388,-0.042152,0.0262651,0.0202281
1413393218155760384,-0.878764,0.269829,1.59505,0.591551,-0.0106338,-0.806185,-0.00452006,0.251603,-0.342295,0.142156,-0.000815398,0.00908887,0.03082,-0.046519,0.0250391,0.0198514
1413393218205760512,-0.868615,0.249794,1.60155,0.591499,-0.013976,-0.806184,0.00113214,0.25636,-0.345399,0.0903699,-0.000781611,0.00967246,0.0327262,-0.0464578,0.0319281,0.0144628
1413393218255760384,-0.853975,0.234351,1.60324,0.590887,-0.0189249,-0.806499,0.00734765,0.278026,-0.308136,0.0378529,-0.000829202,0.0092884,0.0318074,-0.0422373,0.029576,0.0174743
1413393218305760512,-0.838321,0.220999,1.60358,0.589742,-0.0225767,-0.807181,0.0123947,0.277218,-0.303216,0.00180977,-0.00082712,0.00917982,0.0313391,-0.0418567,0.0263546,0.0203202
1413393218355760384,-0.828313,0.203387,1.60591,0.588888,-0.02202,-0.807823,0.0122191,0.275668,-0.282557,-0.0325279,-0.000774764,0.00976717,0.0331446,-0.0470777,0.0300242,0.0118424
1413393218405760512,-0.813577,0.190066,1.60236,0.589934,-0.0200022,-0.807168,0.00758828,0.285683,-0.242229,-0.061131,-0.000790824,0.0094751,0.0323165,-0.0449593,0.0320151,0.0148509
1413393218455760384,-0.797105,0.179364,1.59678,0.590462,-0.0169422,-0.806883,0.00275092,0.296437,-0.242748,-0.0938306,-0.000829242,0.00928847,0.0318077,-0.0421411,0.0297085,0.017373
1413393218505760512,-0.784922,0.166628,1.59632,0.590537,-0.0128286,-0.806904,-0.00286043,0.294955,-0.232696,-0.0802739,-0.000788984,0.00985043,0.0335547,-0.0473388,0.0282621,0.00880176
1413393218555760384,-0.769996,0.154161,1.59029,0.591249,-0.0102179,-0.806381,-0.0083685,0.305982,-0.217161,-0.0816316,-0.000781667,0.00967283,0.0327275,-0.0464745,0.0320731,0.0135976
1413393218605760512,-0.753589,0.143171,1.58502,0.59257,-0.00770551,-0.805399,-0.0116449,0.310751,-0.247086,-0.0761697,-0.000790851,0.00947518,0.0323168,-0.0449337,0.0320295,0.0147422
1413393218655760384,-0.739594,0.131342,1.58417,0.592805,-0.00556428,-0.805205,-0.0140321,0.314302,-0.242813,-0.0700868,-0.0008003,0.00990153,0.0339701,-0.0464113,0.027521,0.0075929
1413393218705760512,-0.723643,0.118531,1.58072,0.592996,-0.00624255,-0.805053,-0.0144074,0.323393,-0.243043,-0.0574377,-0.000774804,0.0097675,0.0331458,-0.0468033,0.0291226,0.0103259
1413393218755760384,-0.706548,0.105107,1.57706,0.591664,-0.00536555,-0.806024,-0.0151905,0.329967,-0.275854,-0.0541164,-0.000781681,0.00967295,0.0327278,-0.0463932,0.0320143,0.0134572
1413393218805760512,-0.691224,0.0927844,1.57634,0.587069,-0.00561712,-0.809396,-0.0140088,0.333406,-0.264085,-0.048074,-0.000806687,0.0100621,0.0343995,-0.0463977,0.027022,0.00728454
1413393218855760384,-0.674278,0.0796759,1.57399,0.580269,-0.00935685,-0.814306,-0.0103131,0.330446,-0.266323,-0.0409209,-0.000789013,0.00985071,0.0335558,-0.0468117,0.0271691,0.006864
1413393218905760512,-0.657651,0.0651218,1.57068,0.573512,-0.0119549,-0.819084,-0.00656162,0.321017,-0.283532,-0.0402807,-0.000774808,0.00976758,0.0331461,-0.0466965,0.0289099,0.00999862
1413393218955760384,-0.643609,0.0514409,1.57021,0.567429,-0.0135013,-0.8233,-0.00429457,0.299194,-0.263148,-0.0147165,-0.000780743,0.0101677,0.0348024,-0.0443653,0.0296335,0.00681212
1413393219005760512,-0.628592,0.0391773,1.56941,0.563714,-0.0155008,-0.825821,-0.00264484,0.274045,-0.251993,0.00415031,-0.000800332,0.00990174,0.0339712,-0.0456448,0.0271916,0.00679615
1413393219055760384,-0.615307,0.0268492,1.57064,0.561843,-0.0166105,-0.827077,-0.000554919,0.240294,-0.252359,0.0238007,-0.000789023,0.00985076,0.0335561,-0.0466975,0.0270824,0.00665583
1413393219105760512,-0.606035,0.0124241,1.57202,0.562301,-0.0162875,-0.826772,-0.000933943,0.208919,-0.235881,0.0497529,-0.000797828,0.010183,0.0351842,-0.0420885,0.0319697,0.00958228
1413393219155760384,-0.595079,0.002794,1.57569,0.563405,-0.0166788,-0.826013,0.000171512,0.176486,-0.221443,0.0562827,-0.000806727,0.0100624,0.0344006,-0.0456311,0.0272136,0.00721913
1413393219205760512,-0.586877,-0.00801911,1.57843,0.564405,-0.0164286,-0.825334,0.000887213,0.148676,-0.217352,0.070134,-0.000800352,0.00990178,0.0339715,-0.0454835,0.027278,0.00691788
1413393219255760384,-0.581825,-0.0219356,1.58241,0.566172,-0.0159903,-0.824132,0.000874104,0.127271,-0.208822,0.0925744,-0.000867303,0.0102146,0.0354939,-0.0423763,0.0321471,0.0125701
1413393219305760512,-0.575652,-0.0301021,1.58822,0.567287,-0.0152814,-0.823377,0.00155289,0.0960917,-0.187752,0.0999096,-0.00078077,0.0101679,0.0348035,-0.0432666,0.0305149,0.00697478
1413393219355760384,-0.570479,-0.0374151,1.59357,0.567663,-0.0148135,-0.823124,0.00252117,0.0663495,-0.177979,0.110769,-0.000806742,0.0100625,0.0344009,-0.0454656,0.0272549,0.00719701
1413393219405760512,-0.568915,-0.0500752,1.59934,0.568201,-0.0152218,-0.822741,0.00358872,0.0477758,-0.170963,0.109231,-0.000902921,0.0103447,0.0358444,-0.0446383,0.0314146,0.0102809
1413393219455760384,-0.566983,-0.0572023,1.60177,0.569677,-0.0151284,-0.821721,0.00375217,0.0172988,-0.149791,0.0631395,-0.000797872,0.0101833,0.0351853,-0.0407967,0.0331057,0.0105487
1413393219505760512,-0.567228,-0.0631624,1.605,0.570548,-0.0146117,-0.821125,0.00391052,-0.0109621,-0.138571,0.0235592,-0.000780783,0.010168,0.0348038,-0.0430352,0.0306773,0.00696554
1413393219555760384,-0.567783,-0.0720321,1.60863,0.571857,-0.0140948,-0.820224,0.00369423,-0.0315957,-0.128479,-0.00193301,-0.000989532,0.0104778,0.0361767,-0.0480654,0.0288344,0.00713506
1413393219605760512,-0.569288,-0.0780401,1.60443,0.574039,-0.01399,-0.818701,0.00352409,-0.0359601,-0.110475,-0.0109701,-0.000867413,0.0102148,0.035495,-0.0415749,0.0324823,0.0139766
1413393219655760384,-0.571728,-0.0824199,1.60415,0.576322,-0.0137787,-0.817097,0.00414551,-0.0489381,-0.101979,0.0176871,-0.000797898,0.0101833,0.0351856,-0.0405814,0.0332645,0.0108646
1413393219705760512,-0.574431,-0.0879283,1.61319,0.578224,-0.012442,-0.815779,0.00276516,-0.0661144,-0.0906022,0.0851676,-0.00103641,0.0106459,0.0365565,-0.0510704,0.0305268,0.00360286
1413393219755760384,-0.579138,-0.09279,1.61509,0.581936,-0.0118377,-0.813146,0.00204349,-0.0811946,-0.0782083,0.148884,-0.000903076,0.0103449,0.0358454,-0.0447839,0.030795,0.00951588
1413393219805760512,-0.580599,-0.0954318,1.62167,0.585639,-0.0101572,-0.810509,0.000102518,-0.0523481,-0.0654346,0.194452,-0.000867472,0.0102148,0.0354952,-0.0415235,0.0323671,0.0141371
1413393219855760384,-0.584604,-0.0976937,1.64412,0.585288,-0.00880723,-0.810777,-0.00102257,-0.0604209,-0.0633672,0.312366,-0.00103138,0.010845,0.0369503,-0.0508216,0.035674,-0.00321395
1413393219905760512,-0.588515,-0.102235,1.6555,0.587507,-0.0085502,-0.809172,-0.00181806,-0.0522265,-0.0579712,0.327505,-0.000989753,0.010478,0.0361777,-0.0492323,0.0273653,0.00374584
1413393219955760384,-0.590267,-0.104822,1.66912,0.589284,-0.00722854,-0.807887,-0.00328666,-0.0455855,-0.0485893,0.322337,-0.000903135,0.0103449,0.0358456,-0.0448988,0.0306582,0.00891487
1413393220005760512,-0.592862,-0.10616,1.69352,0.589225,-0.00612229,-0.807935,-0.00411168,-0.0528442,-0.0583744,0.291451,-0.00103403,0.0109721,0.0373364,-0.0525942,0.039804,-0.00768896
1413393220055760384,-0.59548,-0.110069,1.7024,0.591175,-0.00621286,-0.806507,-0.00464808,-0.0231489,-0.0555961,0.234673,-0.00103664,0.0106462,0.0365575,-0.0523764,0.0305781,-0.000168491
1413393220105760512,-0.595476,-0.112158,1.71085,0.59236,-0.0066373,-0.805634,-0.00446906,-0.00817133,-0.0449992,0.208485,-0.000989827,0.0104781,0.0361779,-0.0494289,0.0270837,0.00307578
1413393220155760384,-0.597482,-0.115642,1.72829,0.591728,-0.0054865,-0.8061,-0.00562818,-0.0189925,-0.0686739,0.19808,-0.00105038,0.0110858,0.0377095,-0.0574535,0.0466535,-0.00718513
1413393220205760512,-0.598308,-0.118665,1.73762,0.59273,-0.00513327,-0.805362,-0.00613078,-0.0111499,-0.0681809,0.22026,-0.00103155,0.0108453,0.0369513,-0.0512653,0.0373865,-0.00750833
1413393220255760384,-0.596893,-0.120851,1.74564,0.593865,-0.00600805,-0.804524,-0.00556199,0.00641608,-0.0497274,0.222282,-0.00103671,0.0106463,0.0365577,-0.0524585,0.0308268,-0.000482915
1413393220305760512,-0.600616,-0.128094,1.76121,0.593515,-0.00488561,-0.804772,-0.00765298,-0.00398494,-0.085188,0.234951,-0.0010332,0.0111707,0.038081,-0.0667998,0.0558208,-0.000960484
1413393220355760384,-0.598897,-0.129505,1.77341,0.594057,-0.00500862,-0.804379,-0.00674535,0.00616839,-0.0829958,0.235484,-0.00103416,0.0109724,0.0373374,-0.0528837,0.0422608,-0.010903
1413393220405760512,-0.597403,-0.133083,1.78329,0.594372,-0.00550565,-0.804144,-0.00665976,0.0221191,-0.0727098,0.248196,-0.0010316,0.0108454,0.0369516,-0.0511958,0.0376646,-0.00800274
1413393220455760384,-0.600322,-0.142471,1.79755,0.593214,-0.00550593,-0.80499,-0.00770088,0.0244055,-0.105015,0.254098,-0.00104446,0.0112794,0.038401,-0.0760365,0.0641137,0.00605197
1413393220505760512,-0.596784,-0.14436,1.80955,0.591369,-0.00559125,-0.806353,-0.00680248,0.0313886,-0.102884,0.231017,-0.00105049,0.0110861,0.0377106,-0.0584901,0.049874,-0.00678626
1413393220555760384,-0.593691,-0.147475,1.81866,0.589943,-0.00657418,-0.807397,-0.005972,0.0456531,-0.0889595,0.181678,-0.00103419,0.0109725,0.0373377,-0.0528925,0.0425356,-0.0110335
1413393220605760512,-0.595451,-0.1581,1.82997,0.588536,-0.00697266,-0.808412,-0.00682967,0.035679,-0.117976,0.139195,-0.00103536,0.0114296,0.0387077,-0.0816148,0.0708209,0.00987798
1413393220655760384,-0.592467,-0.16289,1.83332,0.58935,-0.00678344,-0.807824,-0.00646725,0.0364122,-0.118876,0.0705501,-0.00103328,0.0111709,0.0380821,-0.0692482,0.0601912,0.00374947
1413393220705760512,-0.58906,-0.165089,1.83437,0.59007,-0.00771808,-0.807297,-0.00543053,0.0457261,-0.0935479,0.00233429,-0.00105052,0.0110862,0.0377109,-0.0586711,0.050342,-0.00624172
1413393220755760384,-0.589543,-0.175009,1.83952,0.588998,-0.00945732,-0.808072,-0.00348866,0.039163,-0.133566,-0.027499,-0.000995474,0.0115336,0.0390472,-0.0826212,0.0819149,0.0106748
1413393220805760512,-0.586944,-0.181885,1.83456,0.58723,-0.0120666,-0.809331,0.000487927,0.0508037,-0.120615,-0.0297286,-0.00104453,0.0112796,0.038402,-0.0790008,0.0686515,0.0114195
1413393220855760384,-0.583319,-0.185276,1.83164,0.585986,-0.0156138,-0.810159,0.00452813,0.0560747,-0.0833462,0.00766737,-0.0010333,0.011171,0.0380824,-0.0695863,0.0608616,0.00467461
1413393220905760512,-0.582265,-0.192134,1.84122,0.58414,-0.0167447,-0.811455,0.00639923,0.0609109,-0.118479,0.0756215,-0.000977175,0.0115856,0.0393857,-0.0819908,0.0858991,0.0105393
1413393220955760384,-0.579478,-0.197164,1.84524,0.583289,-0.0177847,-0.812033,0.00777269,0.054087,-0.0837794,0.17822,-0.00103542,0.0114299,0.0387087,-0.0835046,0.0744195,0.0120034
1413393221005760512,-0.576321,-0.199724,1.85121,0.58424,-0.0188383,-0.811335,0.00665109,0.0503362,-0.0392757,0.196411,-0.00104456,0.0112797,0.0384023,-0.0792762,0.0691873,0.0119178
1413393221055760384,-0.575838,-0.204225,1.86699,0.583177,-0.0186785,-0.812113,0.00537787,0.0392776,-0.0652992,0.231972,-0.000984389,0.0116553,0.0396855,-0.0844316,0.0865779,0.0139749
1413393221105760512,-0.573349,-0.206177,1.87925,0.582187,-0.0187437,-0.812823,0.00512094,0.0328518,-0.0417254,0.245445,-0.000995479,0.0115339,0.0390482,-0.082777,0.0866198,0.00974164
1413393221155760384,-0.570956,-0.206337,1.89008,0.582091,-0.0196085,-0.812877,0.00415198,0.0405895,-0.00716169,0.260258,-0.00103543,0.01143,0.038709,-0.0835456,0.0746879,0.0117291
1413393221205760512,-0.571702,-0.209835,1.90485,0.580588,-0.0192829,-0.813967,0.0021476,0.0159616,-0.0299139,0.266418,-0.00103227,0.011763,0.0399583,-0.0872535,0.0859544,0.0173888
1413393221255760384,-0.570594,-0.210335,1.91893,0.57928,-0.0191034,-0.814903,0.0016725,0.0103215,-0.00900401,0.260219,-0.000977164,0.0115858,0.0393867,-0.0817113,0.0886179,0.00988893
1413393221305760512,-0.569261,-0.209603,1.93214,0.577621,-0.0185549,-0.816094,-0.000975028,0.00484449,0.0160007,0.246459,-0.000995479,0.0115339,0.0390485,-0.0826133,0.0873909,0.00954955
1413393221355760384,-0.57081,-0.209949,1.94569,0.576043,-0.018704,-0.817204,-0.00164236,-0.0143908,0.00411923,0.284327,-0.00106492,0.0118719,0.0402686,-0.0878131,0.0844453,0.0173863
1413393221405760512,-0.572076,-0.209632,1.95886,0.574763,-0.0178223,-0.81812,-0.00303683,-0.0278857,0.0160387,0.284308,-0.00098439,0.0116556,0.0396865,-0.084926,0.0871579,0.016483
1413393221455760384,-0.573735,-0.208282,1.9732,0.574255,-0.0166925,-0.818489,-0.00548322,-0.0438505,0.0298579,0.261098,-0.000977163,0.0115858,0.039387,-0.0817074,0.0885851,0.0102088
1413393221505760512,-0.575527,-0.206106,1.98714,0.573394,-0.0156978,-0.819102,-0.00671155,-0.0534485,0.0227389,0.205705,-0.00105598,0.0120441,0.0406082,-0.0854869,0.0854988,0.0154183
1413393221555760384,-0.578898,-0.205644,1.99495,0.572894,-0.0138524,-0.819458,-0.00951127,-0.0632312,0.029325,0.155268,-0.00103232,0.0117633,0.0399593,-0.0879596,0.0853,0.0201462
1413393221605760512,-0.583161,-0.204597,2.0012,0.573127,-0.0125766,-0.819289,-0.0115494,-0.0910529,0.0277218,0.134118,-0.000984393,0.0116556,0.0396868,-0.0850134,0.0870401,0.0170417
1413393221655760384,-0.587534,-0.202432,2.01091,0.573473,-0.0112893,-0.819052,-0.0124919,-0.108393,0.0105405,0.143578,-0.00106193,0.0121484,0.0409393,-0.0804573,0.0874834,0.0132168
1413393221705760512,-0.59319,-0.201924,2.01743,0.576691,-0.0106313,-0.81679,-0.0129949,-0.114904,0.0187707,0.159329,-0.00106499,0.0118722,0.0402696,-0.0878518,0.0835187,0.0176362
1413393221755760384,-0.598863,-0.201846,2.02434,0.580447,-0.0107594,-0.814134,-0.0123719,-0.11888,0.00923214,0.154496,-0.00103235,0.0117634,0.0399596,-0.0879374,0.0852263,0.020247
1413393221805760512,-0.605334,-0.20157,2.0336,0.583567,-0.00973732,-0.811922,-0.0117279,-0.123645,-0.0128425,0.156369,-0.00105167,0.0122318,0.0413131,-0.0753293,0.0913681,0.0104416
1413393221855760384,-0.611223,-0.201117,2.04154,0.585679,-0.00887587,-0.810408,-0.0118339,-0.119083,0.00566814,0.155149,-0.00105605,0.0120445,0.0406093,-0.0845277,0.0855498,0.0135944
1413393221905760512,-0.61699,-0.201428,2.04901,0.586974,-0.00907567,-0.809484,-0.0107146,-0.115553,-0.013372,0.149235,-0.00106503,0.0118722,0.0402699,-0.0877518,0.08344,0.017355
1413393221955760384,-0.623683,-0.203123,2.05653,0.58842,-0.00876874,-0.808457,-0.00905902,-0.116767,-0.0235618,0.119903,-0.00100917,0.0123122,0.0415608,-0.0716837,0.0937496,0.00600101
1413393222005760512,-0.62882,-0.203416,2.06124,0.588529,-0.00877001,-0.808385,-0.00845084,-0.109841,-0.00386112,0.0745699,-0.001062,0.0121488,0.0409404,-0.0787886,0.0881811,0.0114168
1413393222055760384,-0.634109,-0.203282,2.06446,0.589141,-0.00869826,-0.80795,-0.00739107,-0.10531,-0.0174039,0.0231157,-0.00105607,0.0120446,0.0406096,-0.0843125,0.0856327,0.0133004
1413393222105760512,-0.640251,-0.20668,2.06305,0.589778,-0.00822605,-0.8075,-0.00620477,-0.114068,-0.0371731,-0.0479002,-0.000983537,0.012419,0.0418666,-0.0686101,0.0943418,0.00121127
1413393222155760384,-0.645696,-0.207892,2.05839,0.589995,-0.00757892,-0.807349,-0.00597176,-0.110638,-0.0210517,-0.102194,-0.00105171,0.0122322,0.0413143,-0.073643,0.0926502,0.00930179
1413393222205760512,-0.650518,-0.207665,2.05332,0.589753,-0.00711978,-0.807534,-0.00549662,-0.102302,-0.0242013,-0.157035,-0.00106201,0.012149,0.0409407,-0.0785383,0.088258,0.0113163
1413393222255760384,-0.656756,-0.211846,2.04383,0.58846,-0.00660193,-0.808485,-0.00491023,-0.0986324,-0.044441,-0.216785,-0.000971568,0.0125399,0.0421544,-0.0679995,0.0939896,-0.00270105
1413393222305760512,-0.66132,-0.212988,2.03085,0.586264,-0.005901,-0.810083,-0.00504935,-0.0938413,-0.0271727,-0.248716,-0.00100917,0.0123126,0.0415619,-0.0702995,0.0946871,0.00382738
1413393222355760384,-0.665195,-0.213945,2.0183,0.582289,-0.00596627,-0.812946,-0.00484749,-0.0919493,-0.0360185,-0.244858,-0.00105173,0.0122323,0.0413146,-0.0734593,0.0928095,0.00926196
1413393222405760512,-0.671048,-0.217243,2.00778,0.577893,-0.00543873,-0.816084,-0.00417462,-0.104471,-0.0503685,-0.231119,-0.0009872,0.0126338,0.0423945,-0.0666788,0.0929105,-0.00420496
1413393222455760384,-0.676513,-0.219414,1.99657,0.574677,-0.0043027,-0.81835,-0.00560992,-0.11069,-0.0401116,-0.205933,-0.000983508,0.0124194,0.0418676,-0.0674039,0.0944053,-0.00217018
1413393222505760512,-0.68202,-0.221194,1.98716,0.572099,-0.00418419,-0.820161,-0.00457348,-0.126982,-0.051375,-0.17239,-0.00100917,0.0123127,0.0415621,-0.070167,0.0947001,0.00329377
1413393222555760384,-0.689237,-0.224348,1.98142,0.570733,-0.00550736,-0.821116,-0.00171672,-0.137285,-0.0589708,-0.112037,-0.000986414,0.0127386,0.0426398,-0.0663082,0.0926149,-0.00653705
1413393222605760512,-0.697191,-0.227718,1.97609,0.569552,-0.00526529,-0.821937,-0.00143035,-0.164702,-0.0487133,-0.0798217,-0.000971531,0.0125402,0.0421554,-0.0672464,0.0933722,-0.00588266
1413393222655760384,-0.704978,-0.229789,1.97253,0.568432,-0.00580693,-0.82271,-0.000232843,-0.188227,-0.0529993,-0.0181679,-0.000983496,0.0124194,0.0418679,-0.0672384,0.0942619,-0.00276633
1413393222705760512,-0.715519,-0.231956,1.97404,0.568362,-0.00408851,-0.822768,-0.0010929,-0.21539,-0.0553628,0.0315007,-0.000986057,0.012826,0.0428998,-0.0660719,0.0937796,-0.00912119
1413393222755760384,-0.726689,-0.234902,1.97531,0.566972,-0.00467361,-0.823724,0.000383366,-0.237298,-0.0494133,0.0641892,-0.000987189,0.0126342,0.0423955,-0.0659794,0.0920992,-0.00556241
1413393222805760512,-0.739079,-0.2379,1.97935,0.565175,-0.00464722,-0.824957,0.00102945,-0.262166,-0.0519825,0.11411,-0.000971522,0.0125403,0.0421556,-0.0671472,0.0932609,-0.00611202
1413393222855760384,-0.752259,-0.239307,1.98695,0.562884,-0.00421151,-0.826523,0.00179662,-0.282146,-0.0527148,0.141936,-0.000969387,0.0129566,0.0431982,-0.0664115,0.0957898,-0.0116632
1413393222905760512,-0.766784,-0.242107,1.99394,0.562062,-0.00425197,-0.827077,0.00344918,-0.305887,-0.0489761,0.178591,-0.000986411,0.012739,0.0426408,-0.0658875,0.0923325,-0.00717039
1413393222955760384,-0.782542,-0.244761,2.00355,0.56046,-0.0034338,-0.828164,0.00427295,-0.335999,-0.0468374,0.222193,-0.000987191,0.0126342,0.0423957,-0.0658678,0.0920069,-0.00548217
1413393223005760512,-0.800925,-0.247306,2.0173,0.561261,-0.00189551,-0.827628,0.00386784,-0.357809,-0.0473103,0.232385,-0.000963185,0.0130172,0.0434805,-0.0673248,0.0982275,-0.0134913
1413393223055760384,-0.819011,-0.249401,2.0281,0.563506,-0.000890336,-0.826098,0.00471922,-0.382083,-0.045665,0.248874,-0.000986061,0.0128264,0.0429007,-0.0658263,0.0942299,-0.0104152
1413393223105760512,-0.837985,-0.251111,2.03969,0.565394,-0.000466589,-0.824801,0.00578581,-0.401029,-0.0325764,0.24865,-0.000986414,0.0127391,0.042641,-0.0658523,0.092371,-0.00734022
1413393223155760384,-0.86061,-0.254183,2.05498,0.566463,0.00111634,-0.824075,0.00446224,-0.434254,-0.0387595,0.25478,-0.000960257,0.0131403,0.0437692,-0.071374,0.101076,-0.0140771
1413393223205760512,-0.881805,-0.25545,2.06562,0.56843,0.00329876,-0.822719,0.00321743,-0.448696,-0.0431097,0.25646,-0.000969378,0.0129569,0.0431992,-0.0662388,0.0968237,-0.0135056
1413393223255760384,-0.903716,-0.256926,2.076,0.569565,0.00454787,-0.821931,0.00216643,-0.459302,-0.03243,0.217242,-0.000986065,0.0128265,0.0429009,-0.0657811,0.0943642,-0.0106557
1413393223305760512,-0.929559,-0.261387,2.08958,0.570758,0.00498376,-0.821101,0.00201872,-0.482216,-0.0558392,0.187887,-0.000944865,0.0132031,0.0440074,-0.0733464,0.103794,-0.0137802
1413393223355760384,-0.953101,-0.263166,2.09501,0.571993,0.00578545,-0.820237,0.00153437,-0.49628,-0.057183,0.10046,-0.000963176,0.0130175,0.0434815,-0.0673334,0.0994544,-0.014871
1413393223405760512,-0.977359,-0.265048,2.09677,0.573781,0.00620408,-0.818984,0.00147986,-0.500239,-0.0581925,-0.00127613,-0.000969377,0.012957,0.0431994,-0.0661821,0.0969421,-0.0137391
1413393223455760384,-1.00481,-0.270678,2.09717,0.575375,0.00675146,-0.817862,0.000116661,-0.515789,-0.0701311,-0.110427,-0.000940731,0.0132434,0.0442584,-0.0751843,0.105781,-0.0127295
1413393223505760512,-1.03028,-0.273331,2.08865,0.578128,0.00739039,-0.815913,-0.000574528,-0.520944,-0.0713443,-0.212888,-0.000960255,0.0131406,0.0437702,-0.0720399,0.102238,-0.0150072
1413393223555760384,-1.05511,-0.276037,2.0735,0.581183,0.00675738,-0.813745,-0.000408745,-0.523522,-0.0758442,-0.298979,-0.000963178,0.0130176,0.0434817,-0.0673607,0.0995583,-0.0149696
1413393223605760512,-1.08291,-0.282177,2.06156,0.583229,0.00643891,-0.812281,-0.00175407,-0.515571,-0.0831892,-0.361526,-0.000894256,0.0133056,0.0445318,-0.077601,0.108315,-0.0138331
1413393223655760384,-1.1082,-0.286276,2.04128,0.585569,0.00592993,-0.810595,-0.00313419,-0.510146,-0.0872829,-0.399459,-0.000944862,0.0132034,0.0440084,-0.0740554,0.104748,-0.0139505
1413393223705760512,-1.13304,-0.289554,2.02064,0.586641,0.00439326,-0.809826,-0.00383953,-0.50154,-0.0906532,-0.379592,-0.000960261,0.0131407,0.0437705,-0.0721497,0.102335,-0.0151117
1413393223755760384,-1.15875,-0.296315,2.00656,0.586972,0.00314741,-0.809584,-0.00530668,-0.505192,-0.107408,-0.300677,-0.000866216,0.0133924,0.0447669,-0.0791788,0.108994,-0.0151481
1413393223805760512,-1.18277,-0.302072,1.99035,0.588409,0.00125348,-0.808541,-0.00596234,-0.492085,-0.123968,-0.250188,-0.000940732,0.0132436,0.0442593,-0.0756366,0.106581,-0.0122097
1413393223855760384,-1.2068,-0.307787,1.97993,0.587338,-0.000282444,-0.809312,-0.00697934,-0.468292,-0.132288,-0.158816,-0.000944861,0.0132034,0.0440086,-0.0740787,0.104833,-0.013846
1413393223905760512,-1.2317,-0.316133,1.9769,0.586972,-0.000927539,-0.809545,-0.0100172,-0.490831,-0.143824,-0.0841121,-0.000828824,0.013513,0.0449978,-0.0834594,0.110304,-0.013898
1413393223955760384,-1.2551,-0.323433,1.97273,0.58685,-0.00233618,-0.809614,-0.0112735,-0.483262,-0.162553,-0.0299954,-0.000894211,0.0133057,0.0445327,-0.0779512,0.109137,-0.0142681
1413393224005760512,-1.27798,-0.331044,1.97067,0.588106,-0.00381151,-0.808688,-0.011922,-0.474499,-0.168378,-7.25151e-05,-0.000940732,0.0132437,0.0442596,-0.0756405,0.106631,-0.012139
1413393224055760384,-1.30436,-0.341421,1.97641,0.586632,-0.00587573,-0.809741,-0.0121993,-0.482977,-0.181773,0.0033659,-0.000784541,0.0136637,0.0453405,-0.0893099,0.110391,-0.0130204
1413393224105760512,-1.32757,-0.35021,1.97279,0.588118,-0.00775395,-0.808644,-0.0123376,-0.468483,-0.197444,-0.0531528,-0.000866145,0.0133926,0.0447678,-0.0794942,0.109243,-0.0163194
1413393224155760384,-1.34933,-0.359852,1.96715,0.588887,-0.00858509,-0.808062,-0.0132059,-0.451993,-0.201109,-0.0869906,-0.000894194,0.0133058,0.0445329,-0.078,0.109224,-0.0144841
1413393224205760512,-1.37394,-0.370972,1.97066,0.588171,-0.00867784,-0.808566,-0.0142104,-0.446746,-0.214819,-0.135352,-0.000777371,0.0138897,0.0456598,-0.0956436,0.109995,-0.0198284
1413393224255760384,-1.39568,-0.381883,1.95598,0.589942,-0.008923,-0.807239,-0.0159419,-0.437704,-0.221426,-0.182596,-0.000828728,0.0135132,0.0449987,-0.0841628,0.110656,-0.0139914
1413393224305760512,-1.41651,-0.392246,1.94361,0.591849,-0.00979095,-0.805832,-0.0159507,-0.420363,-0.227433,-0.255841,-0.000866117,0.0133926,0.044768,-0.0794973,0.109126,-0.0164447
1413393224355760384,-1.43806,-0.403798,1.94303,0.590793,-0.00947265,-0.806601,-0.0164291,-0.432551,-0.236836,-0.282262,-0.000748762,0.0142044,0.0459692,-0.0952952,0.111292,-0.0361896
1413393224405760512,-1.46048,-0.416884,1.91847,0.591836,-0.0121901,-0.805771,-0.0177567,-0.425097,-0.232259,-0.338511,-0.00078442,0.013664,0.0453415,-0.090058,0.110249,-0.0128517
1413393224455760384,-1.48049,-0.428466,1.89575,0.593622,-0.0161044,-0.80438,-0.0180857,-0.414425,-0.244436,-0.393333,-0.000828701,0.0135133,0.0449989,-0.0842067,0.110736,-0.0138056
1413393224505760512,-1.50115,-0.440302,1.89037,0.591987,-0.0198459,-0.805481,-0.0189576,-0.416469,-0.249122,-0.422459,-0.000705401,0.0143565,0.0462308,-0.0844704,0.108249,-0.0448668
1413393224555760384,-1.52357,-0.453228,1.86385,0.592336,-0.0275102,-0.804991,-0.0192485,-0.404349,-0.244399,-0.453028,-0.000777263,0.0138901,0.0456608,-0.0961518,0.107751,-0.0239035
1413393224605760512,-1.54148,-0.465412,1.8337,0.594389,-0.0356058,-0.80313,-0.0203962,-0.379611,-0.239864,-0.476478,-0.000784379,0.0136641,0.0453418,-0.0900707,0.110014,-0.0130542
1413393224655760384,-1.56427,-0.47983,1.82023,0.592816,-0.0432647,-0.803863,-0.0224289,-0.389308,-0.233869,-0.433806,-0.000630347,0.01437,0.0464617,-0.068208,0.0994538,-0.0433619
1413393224705760512,-1.58158,-0.489002,1.80241,0.590567,-0.0518316,-0.804961,-0.0241363,-0.355561,-0.235815,-0.415206,-0.000748656,0.0142049,0.0459703,-0.0945593,0.107154,-0.0459793
1413393224755760384,-1.5974,-0.499892,1.77769,0.589536,-0.0611068,-0.805006,-0.0260565,-0.327373,-0.215647,-0.396092,-0.000777231,0.0138901,0.045661,-0.0961907,0.106947,-0.0254665
1413393224805760512,-1.61824,-0.516182,1.74905,0.588296,-0.0693696,-0.805069,-0.0309855,-0.305068,-0.192662,-0.404148,-0.000714225,0.0141897,0.0466339,-0.0486319,0.0832412,-0.0333954
1413393224855760384,-1.63016,-0.520998,1.74317,0.584889,-0.0772817,-0.806729,-0.033494,-0.298256,-0.199515,-0.327795,-0.000705299,0.014357,0.0462318,-0.081083,0.104684,-0.0527201
1413393224905760512,-1.64544,-0.529634,1.73099,0.583604,-0.0830062,-0.806928,-0.0372103,-0.298975,-0.180405,-0.251479,-0.000748635,0.0142051,0.0459706,-0.0941979,0.106379,-0.0477465
1413393224955760384,-1.66131,-0.543925,1.69429,0.585015,-0.0897158,-0.805026,-0.040509,-0.254367,-0.148317,-0.229389,-0.000867225,0.0139365,0.0467288,-0.0337576,0.0722233,-0.0243459
1413393225005760512,-1.67475,-0.549795,1.70186,0.581103,-0.092422,-0.807331,-0.0446577,-0.279399,-0.166517,-0.129103,-0.000630238,0.0143706,0.0464627,-0.0622198,0.0982528,-0.04291
1413393225055760384,-1.68795,-0.554559,1.70381,0.578266,-0.0935154,-0.809032,-0.0482871,-0.301418,-0.147354,-0.0911744,-0.000705273,0.0143572,0.0462321,-0.0802216,0.104468,-0.05279
1413393225105760512,-1.70051,-0.565594,1.6714,0.581843,-0.0971837,-0.805868,-0.0509024,-0.25423,-0.10772,-0.0606396,-0.00106644,0.0137923,0.0468891,-0.0281349,0.0683612,-0.0182001
1413393225155760384,-1.71507,-0.571073,1.67881,0.579938,-0.0979082,-0.806946,-0.054079,-0.27318,-0.12645,-0.0641725,-0.000714248,0.0141901,0.0466349,-0.0408961,0.0833048,-0.024195
1413393225205760512,-1.73435,-0.577047,1.68996,0.576509,-0.0988887,-0.809218,-0.054993,-0.312977,-0.118433,-0.0302502,-0.000630199,0.0143707,0.046463,-0.0612443,0.0984623,-0.0416804
1413393225255760384,-1.73677,-0.581385,1.6617,0.580365,-0.100908,-0.806215,-0.0548737,-0.233966,-0.0873566,-0.0499681,-0.00123177,0.0137586,0.0470012,-0.0262755,0.0688726,-0.0126334
1413393225305760512,-1.75041,-0.585746,1.66038,0.57901,-0.102732,-0.806879,-0.0560394,-0.242589,-0.0906342,-0.0716667,-0.000867402,0.0139367,0.0467297,-0.0268743,0.0718727,-0.0145411
1413393225355760384,-1.76877,-0.590804,1.66865,0.576807,-0.105049,-0.807916,-0.0594263,-0.258716,-0.0683563,-0.0356886,-0.000714242,0.0141903,0.0466352,-0.0398011,0.0834086,-0.0224178
1413393225405760512,-1.77073,-0.590658,1.65623,0.578261,-0.111297,-0.806091,-0.0587011,-0.223878,-0.0390473,-0.0266037,-0.00139978,0.0137633,0.0471047,-0.0282829,0.0733199,-0.0123771
1413393225455760384,-1.7837,-0.593411,1.65211,0.577592,-0.118188,-0.805443,-0.0606763,-0.234806,-0.0279953,-0.0157223,-0.00106679,0.0137924,0.0468901,-0.0245577,0.0672408,-0.013108
1413393225505760512,-1.79818,-0.594518,1.65535,0.576655,-0.127178,-0.804536,-0.0633781,-0.230775,0.000664109,-0.000960442,-0.00086745,0.0139367,0.04673,-0.0263335,0.0716032,-0.0138524
1413393225555760384,-1.80519,-0.590117,1.66341,0.574071,-0.136706,-0.804597,-0.0661615,-0.219721,0.0222603,0.0176502,-0.0015076,0.0139258,0.0472238,-0.0373413,0.0862023,-0.0132177
1413393225605760512,-1.81483,-0.590731,1.65392,0.574946,-0.148594,-0.801505,-0.0703455,-0.214176,0.0544116,0.0368508,-0.00123223,0.0137586,0.0470019,-0.0255862,0.0684705,-0.0116565
1413393225655760384,-1.82648,-0.587389,1.65518,0.574823,-0.160424,-0.798773,-0.0761929,-0.195087,0.0919895,0.0423851,-0.00106691,0.0137923,0.0468903,-0.0245455,0.0671091,-0.0131792
1413393225705760512,-1.84121,-0.577779,1.67778,0.570412,-0.171006,-0.798894,-0.0845929,-0.223845,0.113534,0.083287,-0.00152659,0.0140938,0.0474547,-0.042676,0.0991044,-0.0136668
1413393225755760384,-1.84474,-0.574948,1.6657,0.572405,-0.181938,-0.793968,-0.0941646,-0.184346,0.130849,0.0700739,-0.00140035,0.0137632,0.0471052,-0.0289929,0.0741295,-0.0133469
1413393225805760512,-1.85022,-0.567901,1.66561,0.572789,-0.192518,-0.789861,-0.104736,-0.140772,0.168891,0.08775,-0.0012324,0.0137585,0.047002,-0.0256635,0.0686394,-0.0117241
1413393225855760384,-1.87639,-0.555889,1.69878,0.565671,-0.20079,-0.790633,-0.120832,-0.196618,0.160997,0.0529552,-0.00148074,0.0142294,0.0477658,-0.0434475,0.10849,-0.00224162
1413393225905760512,-1.87383,-0.549649,1.68276,0.567796,-0.211051,-0.784574,-0.132326,-0.147386,0.169935,-0.0549914,-0.00150823,0.0139257,0.0472241,-0.0393048,0.0885727,-0.0147242
1413393225955760384,-1.87151,-0.541149,1.66574,0.567825,-0.220454,-0.77972,-0.144956,-0.111559,0.18577,-0.177621,-0.00140056,0.0137631,0.0471053,-0.0291058,0.0743556,-0.0134459
1413393226005760512,-1.91022,-0.530225,1.69258,0.55941,-0.227274,-0.780544,-0.161739,-0.202178,0.158471,-0.218993,-0.00139518,0.0144389,0.0480973,-0.0488078,0.117168,0.00978641
1413393226055760384,-1.90669,-0.523142,1.66436,0.561407,-0.238819,-0.773783,-0.170438,-0.166902,0.16023,-0.251908,-0.00152717,0.0140937,0.047455,-0.0443563,0.102268,-0.0148751
1413393226105760512,-1.90144,-0.515979,1.64199,0.562652,-0.250016,-0.768078,-0.175987,-0.126809,0.145631,-0.257661,-0.00150846,0.0139256,0.0472242,-0.0396116,0.0890437,-0.0148114
1413393226155760384,-1.94413,-0.509315,1.66259,0.555481,-0.259254,-0.767866,-0.186039,-0.217028,0.119085,-0.193774,-0.00138789,0.0146006,0.0483823,-0.0510348,0.120632,0.0215603
1413393226205760512,-1.94357,-0.504696,1.64013,0.556937,-0.27056,-0.761988,-0.18972,-0.188241,0.101973,-0.144673,-0.00148124,0.0142292,0.0477662,-0.0446775,0.112574,-0.00197785
1413393226255760384,-1.93945,-0.496248,1.62489,0.557916,-0.280786,-0.757481,-0.190033,-0.166573,0.122791,-0.0825014,-0.00152738,0.0140936,0.0474551,-0.0444807,0.102745,-0.0148697
1413393226305760512,-1.9797,-0.493205,1.65083,0.550861,-0.287261,-0.758357,-0.197304,-0.221937,0.0952733,-0.0419867,-0.0013806,0.014738,0.0486122,-0.0533878,0.123743,0.0311171
1413393226355760384,-1.98494,-0.48914,1.6417,0.550181,-0.296362,-0.755678,-0.196014,-0.218798,0.0956718,-0.0134536,-0.00139553,0.0144389,0.0480979,-0.0502423,0.121665,0.0111439
1413393226405760512,-1.98148,-0.482953,1.62927,0.549024,-0.302913,-0.754207,-0.194907,-0.175465,0.112441,-0.0393315,-0.0014814,0.0142292,0.0477663,-0.0448034,0.11329,-0.00163841
1413393226455760384,-2.01468,-0.47844,1.65071,0.540354,-0.3078,-0.757819,-0.197451,-0.231279,0.0988432,-0.0442627,-0.00138837,0.0148644,0.0488195,-0.0528361,0.127764,0.0357524
1413393226505760512,-2.02256,-0.474177,1.64059,0.537788,-0.313138,-0.757783,-0.196199,-0.231062,0.111698,-0.104364,-0.00138818,0.0146006,0.0483831,-0.052153,0.124852,0.0235983
1413393226555760384,-2.02738,-0.467201,1.62797,0.536849,-0.317377,-0.757238,-0.194051,-0.217661,0.132527,-0.153688,-0.00139565,0.0144388,0.0480981,-0.0504001,0.122304,0.011484
1413393226605760512,-2.05159,-0.460864,1.63425,0.531647,-0.319859,-0.759556,-0.195233,-0.245965,0.140372,-0.169406,-0.00137798,0.0149686,0.0490293,-0.0510458,0.131564,0.037269
1413393226655760384,-2.06152,-0.454183,1.62203,0.531074,-0.3217,-0.759059,-0.195703,-0.247262,0.162501,-0.154441,-0.00138083,0.0147381,0.048613,-0.0540328,0.127047,0.0330561
1413393226705760512,-2.06962,-0.444776,1.60919,0.532262,-0.319158,-0.758121,-0.200219,-0.24975,0.190163,-0.154587,-0.00138827,0.0146007,0.0483833,-0.0521679,0.125286,0.0238564
1413393226755760384,-2.09201,-0.434675,1.61304,0.531466,-0.315687,-0.758263,-0.207179,-0.274692,0.205217,-0.124206,-0.00135165,0.0150468,0.0492161,-0.0472205,0.136145,0.0362486
1413393226805760512,-2.10356,-0.425149,1.60431,0.532087,-0.31239,-0.757856,-0.212013,-0.290689,0.200749,-0.10378,-0.00138856,0.0148647,0.0488203,-0.052634,0.130138,0.0368816
1413393226855760384,-2.1148,-0.414799,1.59609,0.533098,-0.309542,-0.757536,-0.214781,-0.286529,0.210405,-0.121717,-0.00138089,0.0147381,0.0486132,-0.0540237,0.127335,0.0332495
1413393226905760512,-2.13779,-0.40382,1.59811,0.531025,-0.306281,-0.759022,-0.219297,-0.320277,0.204331,-0.103484,-0.00130968,0.0151443,0.0494296,-0.0420821,0.140985,0.0325732
1413393226955760384,-2.15118,-0.394364,1.59082,0.531435,-0.30449,-0.759098,-0.220529,-0.329928,0.19681,-0.078049,-0.00137812,0.0149689,0.0490301,-0.0503742,0.133149,0.0375062
1413393227005760512,-2.16492,-0.384326,1.58557,0.531835,-0.302701,-0.759406,-0.220967,-0.329885,0.196305,-0.0705086,-0.00138861,0.0148647,0.0488205,-0.052519,0.130388,0.0369599
1413393227055760384,-2.19017,-0.374513,1.58703,0.53154,-0.302226,-0.759688,-0.22136,-0.371259,0.188038,-0.0654193,-0.00126044,0.0151869,0.0496262,-0.0383349,0.143436,0.0280672
1413393227105760512,-2.206,-0.365775,1.58144,0.533914,-0.301814,-0.758406,-0.220601,-0.368757,0.177793,-0.0610802,-0.00135174,0.0150471,0.0492168,-0.0461598,0.137301,0.0356732
1413393227155760384,-2.2211,-0.356966,1.57884,0.536138,-0.302559,-0.757274,-0.218062,-0.367043,0.174241,-0.0401612,-0.00137817,0.014969,0.0490303,-0.0502364,0.133255,0.0374701
1413393227205760512,-2.24821,-0.34827,1.58044,0.537044,-0.303422,-0.756791,-0.216301,-0.397562,0.166797,-0.0283155,-0.00124792,0.0152615,0.0498138,-0.0373343,0.143959,0.0233282
1413393227255760384,-2.26644,-0.340299,1.57747,0.540027,-0.305615,-0.754838,-0.212581,-0.390223,0.165764,-0.0017284,-0.00130971,0.0151446,0.0494304,-0.0406945,0.141673,0.0307619
1413393227305760512,-2.28155,-0.332137,1.57612,0.540699,-0.307031,-0.754455,-0.210178,-0.376508,0.162825,-0.00662147,-0.00135177,0.0150472,0.049217,-0.0459775,0.137408,0.035569
1413393227355760384,-2.30797,-0.323811,1.57853,0.541033,-0.308382,-0.753861,-0.20947,-0.396571,0.160014,-0.00314371,-0.00126818,0.0153411,0.049971,-0.04023,0.14322,0.020525
1413393227405760512,-2.32697,-0.315868,1.577,0.540844,-0.309805,-0.75383,-0.207966,-0.387026,0.16545,0.00202346,-0.00126043,0.0151871,0.049627,-0.0371637,0.143345,0.0256811
1413393227455760384,-2.34355,-0.307813,1.57672,0.54118,-0.311337,-0.753437,-0.206223,-0.376517,0.168313,0.00725667,-0.00130972,0.0151447,0.0494306,-0.0404949,0.141691,0.0304308
1413393227505760512,-2.36653,-0.298543,1.57964,0.540724,-0.312406,-0.753452,-0.205742,-0.386754,0.174979,0.00447167,-0.00126772,0.0154316,0.0501328,-0.0437837,0.144084,0.0190455
1413393227555760384,-2.3857,-0.289502,1.5787,0.541844,-0.314299,-0.751789,-0.205996,-0.374972,0.187647,0.00532159,-0.0012479,0.0152617,0.0498146,-0.0368337,0.143067,0.0208798
1413393227605760512,-2.40261,-0.280588,1.57866,0.542659,-0.317391,-0.749791,-0.206393,-0.359582,0.19022,0.00925867,-0.00126042,0.0151872,0.0496272,-0.0370586,0.143227,0.0253726
1413393227655760384,-2.42239,-0.269371,1.58351,0.541433,-0.321036,-0.748658,-0.208081,-0.356652,0.210215,0.0238952,-0.00123042,0.0155286,0.0503282,-0.0457468,0.14659,0.0157359
1413393227705760512,-2.43948,-0.258958,1.58141,0.540355,-0.325866,-0.746597,-0.210763,-0.334205,0.222103,0.014779,-0.00126819,0.0153414,0.0499718,-0.040706,0.141988,0.0189026
1413393227755760384,-2.45552,-0.248413,1.58031,0.539265,-0.331814,-0.743863,-0.21392,-0.31803,0.227176,-0.00173858,-0.00124789,0.0152618,0.0498149,-0.0368402,0.142868,0.0205896
1413393227805760512,-2.4728,-0.235535,1.58583,0.536393,-0.337675,-0.742034,-0.218275,-0.3164,0.236547,-0.00878051,-0.00120862,0.0156145,0.0505306,-0.0464322,0.148116,0.0128697
1413393227855760384,-2.48688,-0.223918,1.58329,0.53573,-0.345764,-0.737801,-0.221562,-0.292485,0.250252,-0.012585,-0.00126774,0.0154318,0.0501336,-0.0445995,0.143397,0.0180412
1413393227905760512,-2.50038,-0.211891,1.58054,0.534113,-0.353501,-0.733858,-0.226305,-0.281591,0.252471,-0.00525762,-0.0012682,0.0153414,0.049972,-0.0407827,0.14185,0.0188129
1413393227955760384,-2.51714,-0.197813,1.58518,0.531976,-0.361985,-0.729562,-0.231752,-0.271999,0.265356,-0.00109123,-0.00121923,0.0156708,0.0507194,-0.0464576,0.14711,0.0102482
1413393228005760512,-2.52901,-0.184301,1.58366,0.529592,-0.371534,-0.724682,-0.237342,-0.239894,0.282014,-0.0183882,-0.00123041,0.0155289,0.0503289,-0.0461416,0.146382,0.0144157
1413393228055760384,-2.53878,-0.171037,1.58078,0.52691,-0.380339,-0.719524,-0.244937,-0.227751,0.28273,-0.0290245,-0.00126777,0.0154319,0.0501337,-0.0446441,0.143405,0.0179433
1413393228105760512,-2.55335,-0.155347,1.58236,0.523228,-0.390066,-0.714684,-0.251609,-0.223437,0.30016,-0.00421966,-0.00125666,0.0157442,0.0509143,-0.0462742,0.145338,0.00905288
1413393228155760384,-2.56409,-0.140073,1.58154,0.518156,-0.399241,-0.710502,-0.259441,-0.20327,0.307635,-0.0271797,-0.00120861,0.0156148,0.0505314,-0.046413,0.147963,0.0116219
1413393228205760512,-2.57239,-0.124895,1.57936,0.514018,-0.408918,-0.705793,-0.265384,-0.196994,0.312108,-0.0173352,-0.00123041,0.0155289,0.0503291,-0.0461259,0.14636,0.0142086
1413393228255760384,-2.5833,-0.108611,1.57847,0.509242,-0.415693,-0.702456,-0.272815,-0.18868,0.322691,-0.0116246,-0.00130694,0.0158035,0.0511196,-0.044733,0.140726,0.0100202
1413393228305760512,-2.59371,-0.0919302,1.57866,0.504942,-0.422071,-0.699239,-0.279204,-0.188137,0.329138,-0.0050578,-0.00121923,0.015671,0.0507201,-0.0463036,0.146659,0.00950496
1413393228355760384,-2.603,-0.0753219,1.57892,0.501173,-0.427753,-0.69601,-0.285348,-0.189444,0.337447,0.00659251,-0.0012086,0.0156149,0.0505316,-0.0463883,0.147892,0.0115122
1413393228405760512,-2.61074,-0.058262,1.57774,-0.497769,0.433129,0.692393,0.291922,-0.167804,0.347784,0.0103194,-0.00132299,0.015854,0.051305,-0.0444165,0.137977,0.0117981
1413393228455760384,-2.62032,-0.0401828,1.57918,-0.494427,0.439948,0.688063,0.297586,-0.169618,0.355262,0.0198483,-0.00125671,0.0157444,0.0509151,-0.0460804,0.144899,0.00885731
1413393228505760512,-2.62975,-0.0225522,1.58041,-0.492587,0.445558,0.683015,0.303853,-0.182747,0.352356,0.019678,-0.00121923,0.0156711,0.0507203,-0.0462723,0.146589,0.00950411
1413393228555760384,-2.63496,-0.00549103,1.57914,-0.491005,0.451121,0.678079,0.309213,-0.153087,0.355858,0.0107621,-0.00137949,0.0159032,0.0514803,-0.0435938,0.135488,0.0113101
1413393228605760512,-2.64402,0.0127048,1.58014,-0.487232,0.457651,0.67434,0.313729,-0.161223,0.355975,0.0138417,-0.00130704,0.0158038,0.0511204,-0.0442865,0.140484,0.0104848
1413393228655760384,-2.65449,0.0309867,1.58183,-0.484658,0.463507,0.670829,0.316632,-0.176117,0.354598,0.0205706,-0.00125673,0.0157445,0.0509153,-0.0460408,0.144875,0.00887911
1413393228705760512,-2.65871,0.0472294,1.57941,-0.481989,0.467143,0.668654,0.319947,-0.151445,0.354113,0.00964206,-0.00142817,0.0159203,0.0516562,-0.040954,0.13124,0.0141367
1413393228755760384,-2.66846,0.0654369,1.58217,-0.479046,0.471438,0.666931,0.321658,-0.169241,0.354546,0.0190626,-0.0013231,0.0158543,0.0513059,-0.0440164,0.137945,0.0125454
1413393228805760512,-2.67749,0.0840828,1.58286,-0.476299,0.476153,0.666161,0.320388,-0.180247,0.37128,0.00153732,-0.00130708,0.0158039,0.0511206,-0.044169,0.140493,0.0105971
1413393228855760384,-2.68437,0.100578,1.57977,-0.474249,0.479598,0.665633,0.319384,-0.163162,0.372203,-0.0166918,-0.0014139,0.0159686,0.0518505,-0.0385173,0.127965,0.0203796
1413393228905760512,-2.69203,0.121284,1.58091,-0.470736,0.484107,0.666389,0.316186,-0.164219,0.391895,-0.0114153,-0.00137963,0.0159035,0.0514811,-0.0430968,0.135326,0.0116814
1413393228955760384,-2.70279,0.141657,1.58093,-0.469128,0.486239,0.666345,0.315398,-0.173749,0.404954,-0.0228933,-0.00132313,0.0158543,0.0513061,-0.0439493,0.137961,0.0126533
1413393229005760512,-2.71205,0.158488,1.57677,-0.467417,0.48524,0.666976,0.31813,-0.159765,0.416247,-0.0216377,-0.00132348,0.0160586,0.0520486,-0.03747,0.127778,0.0286778
1413393229055760384,-2.71542,0.183244,1.57531,-0.465284,0.482995,0.668407,0.32165,-0.165734,0.449056,-0.0430147,-0.00142832,0.0159205,0.051657,-0.0404542,0.131328,0.0149847
1413393229105760512,-2.72511,0.207473,1.57497,-0.464139,0.479917,0.669297,0.326031,-0.173242,0.462831,-0.064017,-0.00137966,0.0159036,0.0514813,-0.0430262,0.135307,0.011661
1413393229155760384,-2.73938,0.223587,1.56967,-0.46288,0.476206,0.670191,0.331381,-0.183096,0.442738,-0.0585308,-0.0012762,0.0161265,0.0522525,-0.038607,0.127725,0.032575
1413393229205760512,-2.74306,0.24863,1.56453,-0.462634,0.473219,0.671058,0.334239,-0.19769,0.455199,-0.0916831,-0.00141402,0.0159688,0.0518513,-0.0381942,0.128469,0.0216721
1413393229255760384,-2.75161,0.275328,1.5607,-0.462449,0.470568,0.671996,0.336345,-0.210381,0.466475,-0.108322,-0.00142837,0.0159206,0.0516572,-0.0404065,0.131405,0.0151637
1413393229305760512,-2.77167,0.29014,1.55473,-0.461951,0.467715,0.672301,0.340375,-0.23143,0.442818,-0.121075,-0.00126949,0.0161344,0.0523953,-0.0389291,0.126932,0.0354752
1413393229355760384,-2.78222,0.313536,1.54798,-0.46334,0.466019,0.672035,0.341337,-0.264024,0.448125,-0.138373,-0.0013235,0.0160589,0.0520494,-0.0374557,0.128697,0.0302107
1413393229405760512,-2.78887,0.340011,1.53962,-0.466449,0.46508,0.671112,0.340198,-0.269669,0.456289,-0.156682,-0.00141405,0.0159689,0.0518515,-0.0381725,0.128555,0.0218264
1413393229455760384,-2.81404,0.35584,1.53049,-0.4696,0.465707,0.668744,0.339668,-0.293387,0.432,-0.154751,-0.00122097,0.0161414,0.0525392,-0.0366231,0.128347,0.0376844
1413393229505760512,-2.8271,0.378696,1.5266,-0.473918,0.467645,0.666506,0.335379,-0.310111,0.431807,-0.153259,-0.00127616,0.0161268,0.0522532,-0.0387087,0.128379,0.0337233
1413393229555760384,-2.84023,0.401635,1.51789,-0.476783,0.469578,0.665325,0.330935,-0.307448,0.434246,-0.141581,-0.0013235,0.0160589,0.0520496,-0.0374471,0.128801,0.0303667
1413393229605760512,-2.85986,0.419539,1.50596,-0.478913,0.472281,0.663883,0.326884,-0.29679,0.423538,-0.133388,-0.00121401,0.0161487,0.052677,-0.0349413,0.128423,0.0384781
1413393229655760384,-2.87295,0.441949,1.50556,-0.479177,0.475404,0.664262,0.32115,-0.300873,0.424674,-0.120679,-0.00126944,0.0161346,0.052396,-0.0389525,0.12726,0.0365505
1413393229705760512,-2.88749,0.46505,1.50088,-0.47786,0.477237,0.665589,0.317626,-0.283307,0.440788,-0.105184,-0.00127615,0.0161269,0.0522535,-0.0387047,0.128415,0.0337977
1413393229755760384,-2.90361,0.483098,1.48471,-0.47711,0.478192,0.66627,0.315886,-0.278404,0.430957,-0.0955557,-0.00118574,0.0161377,0.0528311,-0.0317127,0.129287,0.038034
1413393229805760512,-2.91795,0.505968,1.48778,-0.473917,0.480213,0.668791,0.312277,-0.273613,0.455219,-0.0673803,-0.0012209,0.0161415,0.0525399,-0.0364747,0.12866,0.038945
1413393229855760384,-2.92841,0.531685,1.48909,-0.470447,0.481548,0.671823,0.308943,-0.2606,0.484648,-0.0392499,-0.00126943,0.0161346,0.0523962,-0.0389521,0.127278,0.0366857
1413393229905760512,-2.94323,0.551613,1.47482,-0.468753,0.482107,0.673014,0.308052,-0.256315,0.483261,-0.0309469,-0.00116306,0.0162,0.0529565,-0.0338351,0.129071,0.0404256
1413393229955760384,-2.95665,0.577536,1.47878,-0.466597,0.481803,0.674993,0.307471,-0.259041,0.520394,-0.0121766,-0.00121395,0.0161489,0.0526776,-0.034743,0.1286,0.0395935
1413393230005760512,-2.97038,0.605863,1.48311,-0.464318,0.480081,0.676926,0.309358,-0.252547,0.554712,0.0408207,-0.00122089,0.0161416,0.0525401,-0.0364405,0.128688,0.0391433
1413393230055760384,-2.98166,0.630585,1.4799,-0.464231,0.475043,0.677856,0.315175,-0.264785,0.565749,0.0412726,-0.00111549,0.0163751,0.0530691,-0.0357857,0.128339,0.0420908
1413393230105760512,-2.99499,0.659587,1.47657,-0.464449,0.470336,0.678471,0.320543,-0.265853,0.578885,0.0232415,-0.00118566,0.0161379,0.0528318,-0.0314593,0.12948,0.039162
1413393230155760384,-3.00935,0.690915,1.48441,-0.463979,0.467112,0.67943,0.323889,-0.282368,0.59765,0.0266926,-0.00121394,0.0161489,0.0526777,-0.034726,0.128609,0.0396725
1413393230205760512,-3.02374,0.7179,1.48795,-0.463641,0.464122,0.680369,0.326691,-0.304367,0.592621,0.0130073,-0.00104281,0.0165464,0.0531637,-0.0356559,0.127295,0.0416873
1413393230255760384,-3.0379,0.747822,1.47959,-0.465889,0.461112,0.679614,0.329314,-0.315401,0.595739,-0.0156497,-0.00116295,0.0162003,0.0529571,-0.0339252,0.129144,0.0411989
1413393230305760512,-3.05497,0.777652,1.47706,-0.46856,0.459435,0.678474,0.33022,-0.333346,0.593629,-0.025615,-0.00118563,0.016138,0.0528319,-0.0314416,0.129505,0.0393149
1413393230355760384,-3.07564,0.807494,1.48825,-0.468821,0.461152,0.678537,0.327313,-0.350899,0.592163,-0.0482491,-0.000923185,0.0166879,0.0532525,-0.0315165,0.127034,0.0379291
1413393230405760512,-3.08958,0.837011,1.48008,-0.472416,0.461507,0.676692,0.325459,-0.354278,0.588281,-0.052943,-0.00111535,0.0163754,0.0530697,-0.0358268,0.128147,0.0413465
1413393230455760384,-3.1062,0.865396,1.47132,-0.474491,0.463255,0.674788,0.323905,-0.353384,0.589664,-0.0516357,-0.00116291,0.0162003,0.0529572,-0.0339601,0.129123,0.0411869
1413393230505760512,-3.12995,0.897433,1.48076,-0.473794,0.468019,0.673056,0.321674,-0.364474,0.603747,-0.0255693,-0.000903744,0.0167923,0.0533448,-0.0254424,0.125036,0.0327027
1413393230555760384,-3.14411,0.926975,1.47842,-0.474213,0.47324,0.669665,0.320491,-0.344767,0.59932,-0.0348193,-0.0010426,0.0165468,0.0531642,-0.0353484,0.126828,0.0395785
1413393230605760512,-3.1595,0.955977,1.47252,-0.474352,0.479355,0.665039,0.32083,-0.327242,0.605721,-0.0224084,-0.0011153,0.0163755,0.0530698,-0.0358055,0.128082,0.0410226
1413393230655760384,-3.18419,0.989451,1.4753,-0.471525,0.487525,0.660391,0.322285,-0.33557,0.628784,-0.0115747,-0.000793375,0.0168279,0.0534835,-0.0183835,0.124114,0.0298292
1413393230705760512,-3.19849,1.02191,1.47953,-0.469299,0.495074,0.655367,0.324276,-0.320284,0.662364,0.0542466,-0.000922917,0.0166884,0.053253,-0.0307275,0.126707,0.0359687
1413393230755760384,-3.20848,1.05319,1.48246,-0.467423,0.502739,0.649602,0.326782,-0.288981,0.666713,0.0726977,-0.00104254,0.0165469,0.0531643,-0.0352612,0.126772,0.0393558
1413393230805760512,-3.22918,1.08794,1.48043,-0.464376,0.510559,0.643009,0.331999,-0.289098,0.683638,0.0659324,-0.000780268,0.0168195,0.0536145,-0.0151858,0.120318,0.0285229
1413393230855760384,-3.24153,1.12322,1.48831,-0.459906,0.519071,0.637132,0.336326,-0.25685,0.706768,0.0913574,-0.000903532,0.0167928,0.0533452,-0.0243137,0.124696,0.0314426
1413393230905760512,-3.25427,1.15801,1.49664,-0.454137,0.526848,0.631432,0.34276,-0.245641,0.718193,0.132906,-0.000922853,0.0166886,0.0532531,-0.0305856,0.126683,0.0358473
1413393230955760384,-3.26459,1.19264,1.49206,-0.448108,0.531253,0.626627,0.352573,-0.228343,0.719419,0.123672,-0.000792148,0.0168439,0.0538058,-0.0112746,0.117791,0.0267284
1413393231005760512,-3.28081,1.22987,1.50181,-0.439537,0.536642,0.622848,0.361778,-0.22237,0.72927,0.146725,-0.000793148,0.0168284,0.0534839,-0.0171985,0.124196,0.029315
1413393231055760384,-3.28784,1.26806,1.51382,-0.431822,0.540207,0.62054,0.369645,-0.22065,0.750917,0.147642,-0.000903499,0.016793,0.0533453,-0.0241405,0.124646,0.0313686
1413393231105760512,-3.29778,1.30229,1.51159,-0.42685,0.541146,0.617562,0.378915,-0.241693,0.741563,0.126506,-0.000754202,0.0169004,0.0539303,-0.00875088,0.118571,0.0255263
1413393231155760384,-3.31385,1.34059,1.52101,-0.421069,0.543717,0.615206,0.385481,-0.257576,0.750337,0.146503,-0.00078007,0.0168199,0.053615,-0.0143827,0.120539,0.0289179
1413393231205760512,-3.33038,1.3794,1.53114,-0.416737,0.54747,0.612614,0.388987,-0.277432,0.765297,0.150734,-0.000793093,0.0168285,0.053484,-0.0170391,0.124291,0.0293956
1413393231255760384,-3.33795,1.41489,1.53181,-0.414595,0.547816,0.61108,0.39318,-0.305593,0.757527,0.129796,-0.000690793,0.0169002,0.0540502,-0.00611256,0.118266,0.0246753
1413393231305760512,-3.35373,1.45274,1.53885,-0.413968,0.550527,0.608298,0.394367,-0.31847,0.751503,0.0872209,-0.000791962,0.0168443,0.0538064,-0.0105872,0.117879,0.02722
1413393231355760384,-3.37449,1.49193,1.54564,-0.413892,0.55441,0.604979,0.394112,-0.339963,0.758185,0.0431315,-0.000780006,0.01682,0.0536151,-0.0143249,0.120564,0.0290593
1413393231405760512,-3.3877,1.52768,1.54085,-0.417286,0.556333,0.601315,0.393429,-0.355683,0.758314,-0.00643036,-0.000634887,0.0169088,0.0541844,-0.00612304,0.117688,0.0241579
1413393231455760384,-3.40453,1.56575,1.54041,-0.421894,0.558579,0.596563,0.392566,-0.351094,0.760988,-0.0361532,-0.000753991,0.0169007,0.0539309,-0.00814465,0.118475,0.025308
1413393231505760512,-3.42275,1.60359,1.53783,-0.428678,0.559738,0.590402,0.39288,-0.35885,0.748386,-0.0774237,-0.000791896,0.0168444,0.0538065,-0.0105152,0.117834,0.0272256
1413393231555760384,-3.44181,1.64049,1.52901,-0.437179,0.558327,0.583714,0.395504,-0.362665,0.736634,-0.136067,-0.000600365,0.0168568,0.0543161,-0.00174393,0.118302,0.0244848
1413393231605760512,-3.45788,1.67702,1.52333,-0.444926,0.557227,0.577661,0.397301,-0.330887,0.71413,-0.162462,-0.000690545,0.0169005,0.0540508,-0.00555081,0.118165,0.0245066
1413393231655760384,-3.47402,1.71262,1.51688,-0.449782,0.557328,0.57283,0.398684,-0.321991,0.687192,-0.174295,-0.000753932,0.0169008,0.0539311,-0.00805054,0.118448,0.0252157
1413393231705760512,-3.49149,1.74537,1.50385,-0.451213,0.557668,0.569661,0.401123,-0.296543,0.655354,-0.184459,-0.000601043,0.016844,0.0544405,0.00116473,0.118933,0.0234954
1413393231755760384,-3.50427,1.77774,1.49654,-0.449512,0.560719,0.567735,0.401509,-0.257991,0.630064,-0.1654,-0.000634644,0.016909,0.0541851,-0.00589354,0.117543,0.024322
1413393231805760512,-3.51606,1.80841,1.4887,-0.447028,0.5652,0.565832,0.400687,-0.250209,0.593587,-0.157065,-0.000690482,0.0169006,0.054051,-0.00549475,0.11814,0.0245571
1413393231855760384,-3.53006,1.83691,1.47899,-0.444824,0.571331,0.56271,0.398836,-0.219583,0.561558,-0.152427,-0.000619803,0.0168172,0.0545761,0.00316591,0.120007,0.0216549
1413393231905760512,-3.54003,1.86465,1.47146,-0.440483,0.579528,0.559814,0.395893,-0.179751,0.541171,-0.12335,-0.000600169,0.0168568,0.0543168,-0.00133979,0.11841,0.0248202
1413393231955760384,-3.54656,1.89249,1.469,-0.43681,0.587722,0.556102,0.393104,-0.149163,0.539104,-0.0998051,-0.00063458,0.016909,0.0541852,-0.0059072,0.117493,0.0243629
1413393232005760512,-3.55497,1.91788,1.46144,-0.432949,0.59535,0.551033,0.393035,-0.106245,0.515489,-0.0983455,-0.00062599,0.0167405,0.0546747,0.00116305,0.122661,0.020719
1413393232055760384,-3.55914,1.94328,1.45684,-0.427123,0.60168,0.547216,0.395097,-0.0596478,0.518316,-0.0585763,-0.000600932,0.016844,0.0544411,0.00171969,0.118965,0.0231425
1413393232105760512,-3.56072,1.96874,1.45561,-0.421103,0.607678,0.542904,0.398316,-0.0228498,0.50058,-0.0299404,-0.000600139,0.0168568,0.0543169,-0.00126167,0.118457,0.0248739
1413393232155760384,-3.56122,1.99471,1.45442,-0.414464,0.613658,0.538116,0.402584,0.0163864,0.494092,-0.0358213,-0.000645455,0.0166869,0.0547701,-0.00218365,0.125132,0.0211612
1413393232205760512,-3.55973,2.0189,1.45198,-0.407861,0.617345,0.533104,0.410286,0.0481725,0.492905,-0.0327084,-0.000619797,0.0168172,0.0545767,0.00358154,0.119958,0.0207491
1413393232255760384,-3.55665,2.04272,1.44936,-0.401774,0.62194,0.527361,0.416724,0.0708842,0.484267,-0.0654588,-0.000600939,0.016844,0.0544412,0.00175474,0.118958,0.0230133
1413393232305760512,-3.55219,2.06881,1.44743,-0.39564,0.62717,0.521154,0.422523,0.0995055,0.484866,-0.0948689,-0.000677094,0.0166542,0.0548975,-0.00823766,0.127657,0.0220871
1413393232355760384,-3.54717,2.09244,1.44022,-0.390941,0.633111,0.513469,0.427418,0.11693,0.48216,-0.138561,-0.000626048,0.0167404,0.0546753,0.000600498,0.122692,0.0200198
1413393232405760512,-3.54023,2.11563,1.43177,-0.385249,0.639275,0.507167,0.43092,0.144275,0.476737,-0.159698,-0.000619824,0.0168171,0.0545769,0.0035577,0.119964,0.0206132
1413393232455760384,-3.53205,2.14183,1.42721,-0.378868,0.64612,0.500779,0.433831,0.163638,0.479116,-0.188924,-0.000696576,0.0166584,0.0549974,-0.0139829,0.131008,0.0256377
1413393232505760512,-3.52418,2.16497,1.41367,-0.374078,0.651925,0.493735,0.437362,0.18082,0.480727,-0.235963,-0.000645555,0.0166866,0.0547706,-0.00344125,0.125338,0.020924
1413393232555760384,-3.51462,2.18819,1.39991,-0.370238,0.656548,0.487735,0.440436,0.198927,0.481862,-0.28036,-0.000626081,0.0167403,0.0546754,0.000390372,0.12273,0.019975
1413393232605760512,-3.50377,2.21542,1.39285,-0.36578,0.661159,0.483798,0.441604,0.205854,0.487178,-0.29373,-0.000698248,0.0166725,0.0550707,-0.0221286,0.134088,0.0312933
1413393232655760384,-3.49323,2.23798,1.37421,-0.364201,0.663975,0.478547,0.444395,0.239686,0.480254,-0.287463,-0.000677229,0.0166538,0.054898,-0.00993492,0.127924,0.022129
1413393232705760512,-3.48144,2.26097,1.35732,-0.362954,0.665736,0.474363,0.447258,0.247006,0.478879,-0.289417,-0.000645597,0.0166865,0.0547707,-0.00366746,0.125395,0.0209154
1413393232755760384,-3.46759,2.28921,1.35446,-0.358705,0.66834,0.473442,0.447778,0.266664,0.487649,-0.241014,-0.000702177,0.0167096,0.0551224,-0.0290953,0.13706,0.0352618
1413393232805760512,-3.45373,2.31134,1.33657,-0.357532,0.669015,0.471088,0.450185,0.302133,0.488978,-0.252138,-0.000696723,0.016658,0.0549979,-0.0157524,0.1315,0.025788
1413393232855760384,-3.4383,2.33415,1.321,-0.357469,0.669036,0.468927,0.452453,0.312865,0.491361,-0.252354,-0.000677279,0.0166537,0.0548982,-0.0101822,0.127976,0.0221209
1413393232905760512,-3.42345,2.36493,1.32097,-0.352764,0.671472,0.47026,0.451154,0.327558,0.504474,-0.215574,-0.000662491,0.0167745,0.0552324,-0.0311177,0.139755,0.0399565
1413393232955760384,-3.40548,2.38738,1.30716,-0.350426,0.670016,0.471044,0.454311,0.355066,0.495941,-0.18063,-0.000698385,0.0166721,0.0550712,-0.0241237,0.134713,0.031534
1413393233005760512,-3.38685,2.40996,1.29338,-0.348597,0.668642,0.472079,0.456662,0.36623,0.498628,-0.161123,-0.000696781,0.0166579,0.0549981,-0.015995,0.131601,0.0257699
1413393233055760384,-3.37158,2.44244,1.29939,-0.342534,0.669144,0.475695,0.456762,0.364462,0.528302,-0.0965679,-0.000664234,0.0167829,0.055337,-0.035824,0.140632,0.0446777
1413393233105760512,-3.34989,2.46672,1.29272,-0.340998,0.668464,0.477297,0.457236,0.388929,0.518104,-0.0702872,-0.000702319,0.0167092,0.0551228,-0.0309581,0.137646,0.0352723
1413393233155760384,-3.33038,2.48983,1.28524,-0.341351,0.666907,0.477602,0.458924,0.389876,0.520466,-0.038422,-0.000698444,0.016672,0.0550713,-0.0244164,0.134813,0.0315074
1413393233205760512,-3.31536,2.52341,1.29403,-0.337792,0.667115,0.478927,0.459874,0.382354,0.556651,0.0308587,-0.000657745,0.0167981,0.0553544,-0.0369384,0.141899,0.047294
1413393233255760384,-3.29343,2.55001,1.29456,-0.338545,0.665248,0.476667,0.464351,0.405891,0.546509,0.065107,-0.00066261,0.0167742,0.0552328,-0.0323587,0.140552,0.039834
1413393233305760512,-3.26987,2.57496,1.29695,-0.339709,0.66354,0.473655,0.469003,0.408734,0.551033,0.105748,-0.00070238,0.0167091,0.0551229,-0.0311933,0.137737,0.03523
1413393233355760384,-3.25667,2.60785,1.30992,-0.336761,0.663216,0.470296,0.474931,0.396746,0.56302,0.171816,-0.000635883,0.0168292,0.0553635,-0.0389267,0.143723,0.0503693
1413393233405760512,-3.23494,2.63401,1.3167,-0.338115,0.662855,0.463597,0.48102,0.400089,0.541309,0.177858,-0.000664388,0.0167827,0.0553374,-0.0370624,0.141484,0.0449408
1413393233455760384,-3.21264,2.65938,1.32373,-0.340259,0.66404,0.45528,0.485793,0.397038,0.529768,0.218897,-0.00066267,0.0167741,0.0552329,-0.0324699,0.140724,0.0398075
1413393233505760512,-3.19987,2.6926,1.34482,-0.333634,0.667161,0.450787,0.490282,0.370442,0.520788,0.276901,-0.000443353,0.0170244,0.055577,-0.0407106,0.149804,0.0553822
1413393233555760384,-3.17827,2.71267,1.35453,-0.333013,0.670263,0.442669,0.493857,0.376087,0.480717,0.274289,-0.000657922,0.016798,0.0553547,-0.0377598,0.142696,0.0475372
1413393233605760512,-3.15743,2.73553,1.36838,-0.32695,0.674521,0.437348,0.496842,0.377222,0.47561,0.318493,-0.000664475,0.0167826,0.0553375,-0.037254,0.141643,0.0450023
1413393233655760384,-3.14735,2.76848,1.39483,-0.314102,0.682384,0.433302,0.497938,0.34874,0.491638,0.369009,-0.000353442,0.0173144,0.0557721,-0.0503468,0.149227,0.0612712
1413393233705760512,-3.12552,2.78428,1.40536,-0.308748,0.68801,0.426547,0.499374,0.346656,0.456743,0.386814,-0.000636064,0.016829,0.0553637,-0.0395861,0.14451,0.0504268
1413393233755760384,-3.10619,2.80434,1.42417,-0.301933,0.691203,0.420057,0.504605,0.341503,0.445114,0.441449,-0.000658005,0.0167979,0.0553547,-0.0378375,0.142822,0.0475388
1413393233805760512,-3.09931,2.84004,1.4617,-0.292342,0.697499,0.412323,0.507958,0.299803,0.462992,0.48562,-0.000312737,0.0175377,0.0559469,-0.0571688,0.146665,0.0659584
1413393233855760384,-3.0812,2.86082,1.47657,-0.290926,0.698104,0.404456,0.514225,0.280364,0.458594,0.454627,-0.000443351,0.0170244,0.0555773,-0.0413704,0.151105,0.0548528
1413393233905760512,-3.06276,2.87195,1.49449,-0.294465,0.69845,0.395435,0.518738,0.277515,0.415379,0.443764,-0.00063613,0.016829,0.0553637,-0.039655,0.144646,0.0503993
1413393233955760384,-3.05927,2.90714,1.53458,-0.286305,0.702793,0.388098,0.522964,0.25617,0.428824,0.464188,-0.000360919,0.0176683,0.0561023,-0.0622589,0.142356,0.0707511
1413393234005760512,-3.04516,2.93012,1.55148,-0.285817,0.707364,0.378641,0.524001,0.234453,0.421891,0.457159,-0.000353405,0.0173147,0.0557727,-0.0520268,0.150505,0.0613951
1413393234055760384,-3.03024,2.94537,1.56539,-0.286647,0.711558,0.368941,0.524787,0.228768,0.382321,0.428068,-0.000443378,0.0170244,0.0555775,-0.0414893,0.151394,0.0547459
1413393234105760512,-3.02597,2.96563,1.60373,-0.279357,0.718931,0.362111,0.523426,0.217995,0.366955,0.441414,-0.000388198,0.0176906,0.0561569,-0.0652002,0.139911,0.0736831
1413393234155760384,-3.01329,2.989,1.62158,-0.275112,0.725258,0.35467,0.522038,0.2119,0.364151,0.38651,-0.000312719,0.0175381,0.0559476,-0.0590401,0.14766,0.0667247
1413393234205760512,-3.0008,3.00593,1.63409,-0.274528,0.729123,0.346561,0.522407,0.216099,0.343635,0.341063,-0.000353432,0.0173148,0.0557729,-0.0523827,0.150644,0.0615143
1413393234255760384,-2.99426,3.0162,1.66241,-0.276271,0.730832,0.336331,0.525776,0.218808,0.316784,0.31875,-0.000416722,0.0177497,0.056185,-0.0682371,0.138367,0.0759096
1413393234305760512,-2.98176,3.03683,1.67463,-0.281991,0.731424,0.322543,0.530533,0.223899,0.302093,0.277548,-0.000360988,0.0176689,0.056103,-0.0635531,0.143195,0.0720071
1413393234355760384,-2.96887,3.05431,1.68403,-0.290095,0.73174,0.306877,0.535004,0.235831,0.262594,0.246389,-0.000312725,0.0175383,0.0559478,-0.0592085,0.147786,0.0668662
1413393234405760512,-2.96275,3.0542,1.69985,-0.295884,0.7306,0.294381,0.540385,0.24212,0.179437,0.203187,-0.000584285,0.01782,0.0563368,-0.0547251,0.129497,0.0789278
1413393234455760384,-2.94763,3.06607,1.71016,-0.299499,0.732514,0.280829,0.543009,0.250752,0.131077,0.181031,-0.000388284,0.017691,0.0561575,-0.0655261,0.140666,0.0745978
1413393234505760512,-2.93273,3.07547,1.71691,-0.29895,0.73384,0.270656,0.546674,0.266406,0.0533479,0.146622,-0.000361011,0.017669,0.0561031,-0.0634787,0.143427,0.0721181
1413393234555760384,-2.92477,3.06547,1.72466,-0.294957,0.733749,0.264372,0.552015,0.271167,-0.0663052,0.189924,-0.000653528,0.0178776,0.0563976,-0.0487454,0.128498,0.0792343
1413393234605760512,-2.9064,3.06368,1.73952,-0.281524,0.735617,0.261844,0.557718,0.299915,-0.125744,0.214809,-0.000416777,0.0177499,0.0561853,-0.0680908,0.138906,0.0762439
1413393234655760384,-2.89145,3.0576,1.74948,-0.261278,0.736357,0.263297,0.565851,0.294572,-0.212087,0.286175,-0.000388297,0.017691,0.0561575,-0.0655085,0.140696,0.0746085
1413393234705760512,-2.88174,3.04038,1.76422,-0.237931,0.737241,0.268976,0.572291,0.250814,-0.303365,0.420834,-0.000709858,0.0180198,0.0565644,-0.039886,0.128651,0.0840156
1413393234755760384,-2.87177,3.02012,1.78674,-0.21825,0.741319,0.269706,0.574519,0.214061,-0.352486,0.456157,-0.000584535,0.0178203,0.0563371,-0.0530154,0.129366,0.0788923
1413393234805760512,-2.85373,3.01048,1.81912,-0.19728,0.748691,0.270993,0.571932,0.202054,-0.341666,0.47726,-0.000416777,0.0177499,0.0561853,-0.0680908,0.138906,0.0762439
1413393234855760384,-2.85175,2.99373,1.8292,-0.181232,0.754207,0.270527,0.570212,0.149711,-0.348453,0.371781,-0.000636794,0.0180402,0.0568117,-0.0253364,0.124122,0.0946842
1413393234905760512,-2.84574,2.9662,1.84729,-0.176263,0.762344,0.260167,0.565753,0.139487,-0.365635,0.300306,-0.000653855,0.0178779,0.0563979,-0.0472029,0.128373,0.078991
1413393234955760384,-2.83954,2.94733,1.86235,-0.17155,0.768871,0.25061,0.562674,0.12003,-0.355931,0.205985,-0.000584645,0.0178204,0.0563372,-0.0527146,0.129317,0.0788656
1413393235005760512,-2.83324,2.94795,1.86187,-0.165863,0.774278,0.24162,0.560895,0.0894572,-0.31109,0.0737832,-0.000557801,0.0180717,0.0570072,-0.0100644,0.126898,0.0976061
1413393235055760384,-2.82761,2.91989,1.86915,-0.168891,0.780615,0.22565,0.557851,0.105138,-0.331408,-0.00329749,-0.000710218,0.0180202,0.0565648,-0.0385093,0.129127,0.0838352
1413393235105760512,-2.82255,2.89565,1.8681,-0.169267,0.785529,0.210777,0.556656,0.11457,-0.351643,-0.0865071,-0.000653959,0.017878,0.056398,-0.0470629,0.128393,0.0789847
1413393235155760384,-2.82033,2.90299,1.84913,-0.160581,0.788653,0.201178,0.558362,0.0947518,-0.308131,-0.197653,-0.000538633,0.0180646,0.0571175,-0.00307034,0.126046,0.0964321
1413393235205760512,-2.81512,2.87945,1.84646,-0.154023,0.791724,0.191354,0.559315,0.106817,-0.326658,-0.196308,-0.00063701,0.0180405,0.0568122,-0.0237466,0.125434,0.0952335
1413393235255760384,-2.80385,2.85153,1.84118,-0.144784,0.796099,0.183821,0.558098,0.13746,-0.352425,-0.198696,-0.000710335,0.0180204,0.0565649,-0.0383698,0.129279,0.0838403
1413393235305760512,-2.80687,2.85867,1.81744,-0.126604,0.797117,0.180466,0.562147,0.100307,-0.308635,-0.2107,-0.000503373,0.018098,0.057231,-0.00611805,0.11939,0.093208
1413393235355760384,-2.7998,2.83981,1.80965,-0.114427,0.800819,0.178164,0.560225,0.104022,-0.286887,-0.195247,-0.000557886,0.0180719,0.0570077,-0.00800512,0.128401,0.0977993
1413393235405760512,-2.79248,2.81632,1.80958,-0.105493,0.804761,0.175416,0.55719,0.116929,-0.275982,-0.155268,-0.00063708,0.0180406,0.0568123,-0.0235409,0.125674,0.0953889
1413393235455760384,-2.79213,2.81997,1.79057,-0.0946963,0.806631,0.172254,0.557411,0.11211,-0.226913,-0.160963,-0.000465381,0.0181658,0.05735,-0.00663424,0.112579,0.0930245
1413393235505760512,-2.78379,2.80531,1.78123,-0.0868359,0.809824,0.172336,0.554026,0.127502,-0.186701,-0.129861,-0.000538697,0.0180648,0.0571181,-0.00128797,0.126938,0.0965693
1413393235555760384,-2.77558,2.79583,1.78063,-0.0770242,0.809289,0.173413,0.555919,0.148545,-0.136833,-0.0794565,-0.000557902,0.018072,0.0570079,-0.00770552,0.128649,0.0977654
1413393235605760512,-2.77307,2.79332,1.7737,-0.0654252,0.806236,0.174368,0.561516,0.137736,-0.0932828,-0.105772,-0.00047452,0.0182104,0.0574692,-0.00264356,0.115881,0.0891327
1413393235655760384,-2.76486,2.78992,1.76762,-0.0569824,0.804128,0.173931,0.565579,0.141179,-0.0340884,-0.0865762,-0.000503405,0.0180982,0.0572316,-0.00586449,0.118302,0.0937705
1413393235705760512,-2.75565,2.78919,1.76178,-0.0515382,0.801589,0.173379,0.569859,0.132068,0.0454139,-0.0927904,-0.000538711,0.0180649,0.0571182,-0.00109684,0.126925,0.0966274
1413393235755760384,-2.75358,2.78853,1.75975,-0.0523222,0.800552,0.169033,0.572545,0.11892,0.102133,-0.078872,-0.000556879,0.0181739,0.0575269,0.000753292,0.133227,0.078577
1413393235805760512,-2.74713,2.8019,1.75581,-0.0539986,0.79962,0.16381,0.575203,0.0997563,0.164913,-0.0703233,-0.000465355,0.018166,0.0573506,-0.00677301,0.110666,0.0940549
1413393235855760384,-2.74128,2.80956,1.75127,-0.0637017,0.79957,0.155414,0.576608,0.0918177,0.211398,-0.0740579,-0.000503389,0.0180982,0.0572317,-0.00602754,0.117738,0.0939104
1413393235905760512,-2.73948,2.81179,1.74609,-0.0773329,0.800084,0.144561,0.57705,0.078316,0.23616,-0.0769899,-0.000619541,0.018123,0.0576231,-0.000299601,0.153057,0.0613017
1413393235955760384,-2.73488,2.8326,1.74622,-0.0851372,0.800136,0.133562,0.578529,0.0653576,0.250241,-0.0618411,-0.000474459,0.0182107,0.0574699,-0.00127809,0.114732,0.0883949
1413393236005760512,-2.73195,2.84669,1.74425,-0.0909755,0.799572,0.123575,0.580636,0.0481998,0.238468,-0.029558,-0.000465316,0.0181661,0.0573508,-0.0066697,0.110491,0.0942379
1413393236055760384,-2.72889,2.84629,1.73678,-0.0991562,0.800332,0.112496,0.580502,0.0603513,0.232979,-0.0327869,-0.000663304,0.0180548,0.0577197,-0.0038404,0.166851,0.0474224
1413393236105760512,-2.72556,2.86341,1.74064,-0.0985355,0.800852,0.103071,0.581639,0.0690454,0.21674,0.0121077,-0.000556859,0.0181742,0.0575275,0.00256514,0.132989,0.074191
1413393236155760384,-2.72396,2.87689,1.74413,-0.0963333,0.801469,0.0930003,0.582853,0.0218189,0.159933,0.0275033,-0.00047444,0.0182108,0.0574701,-0.000884785,0.114727,0.0880103
1413393236205760512,-2.71939,2.87342,1.73662,-0.0921732,0.804211,0.0849962,0.580969,0.0248815,0.136985,0.0526859,-0.000689694,0.018003,0.0578541,-0.0123913,0.17867,0.0375105
1413393236255760384,-2.72052,2.88339,1.74586,-0.0796989,0.806521,0.0806387,0.580232,-0.0138307,0.120729,0.0899618,-0.000619596,0.0181232,0.0576236,-0.00011504,0.15208,0.0549307
1413393236305760512,-2.72318,2.89167,1.75306,-0.0646872,0.808372,0.0763978,0.580099,-0.0198627,0.0878133,0.077667,-0.000556893,0.0181742,0.0575276,0.00259424,0.132945,0.0732764
1413393236355760384,-2.71892,2.88925,1.74805,-0.0555364,0.81018,0.0685544,0.579504,0.00302198,0.0933355,0.110167,-0.000717123,0.0180234,0.0579782,-0.019344,0.181541,0.0357271
1413393236405760512,-2.7207,2.89614,1.75687,-0.0465574,0.811982,0.0604996,0.578669,0.00123062,0.107096,0.106841,-0.000663435,0.018055,0.0577202,-0.00560833,0.16532,0.0421442
1413393236455760384,-2.72272,2.90303,1.76493,-0.0389993,0.813122,0.0512443,0.578521,-0.0138801,0.100745,0.0938472,-0.000619646,0.0181232,0.0576237,-0.000392859,0.151824,0.0541403
1413393236505760512,-2.71785,2.90348,1.76369,-0.0352612,0.816338,0.0398396,0.575119,0.00853634,0.0983399,0.0988991,-0.000765853,0.018064,0.058082,-0.0217021,0.185383,0.0352168
1413393236555760384,-2.71799,2.91021,1.77049,-0.0289359,0.819854,0.0297843,0.571066,0.0193822,0.104005,0.103229,-0.000689839,0.0180031,0.0578547,-0.0158525,0.177251,0.0344472
1413393236605760512,-2.71944,2.91674,1.77715,-0.0229309,0.824684,0.0199353,0.564777,0.0268014,0.108652,0.0993744,-0.000663484,0.018055,0.0577203,-0.00596383,0.165136,0.0417419
1413393236655760384,-2.71327,2.91949,1.77935,-0.0190053,0.8293,0.00963243,0.558397,0.064571,0.11099,0.0576982,-0.000779923,0.0181317,0.058163,-0.0210185,0.1824,0.0447638
1413393236705760512,-2.71046,2.9259,1.7799,-0.0164373,0.830997,-0.000105105,0.556034,0.0742824,0.115093,0.00156933,-0.00071726,0.0180235,0.0579789,-0.0227527,0.180803,0.0349353
1413393236755760384,-2.70701,2.93213,1.77898,-0.0158807,0.831267,-0.0104663,0.555548,0.100053,0.108071,-0.0507241,-0.000689876,0.0180031,0.0578549,-0.01639,0.177117,0.0343447
1413393236805760512,-2.69962,2.93747,1.77862,-0.0161937,0.830553,-0.0205463,0.556325,0.128356,0.101052,-0.0880959,-0.000784388,0.0182372,0.0582416,-0.0250513,0.16917,0.0596383
1413393236855760384,-2.69246,2.94032,1.7705,-0.0165026,0.828524,-0.0295888,0.558927,0.163053,0.0848126,-0.0799395,-0.000766005,0.0180641,0.0580827,-0.0233651,0.18561,0.0347364
1413393236905760512,-2.6846,2.94464,1.76766,-0.0142927,0.826466,-0.0354134,0.561689,0.184942,0.0589785,-0.0117505,-0.000717289,0.0180235,0.0579791,-0.0230349,0.180809,0.0349931
1413393236955760384,-2.67338,2.94993,1.77405,-0.00868344,0.823591,-0.0370131,0.565909,0.212942,0.0323796,0.035503,-0.000781233,0.0183567,0.0583613,-0.0348367,0.156607,0.0735123
1413393237005760512,-2.6626,2.94789,1.77362,-0.00490877,0.820693,-0.0381188,0.570075,0.226967,0.0174726,0.123634,-0.000780054,0.0181319,0.0581636,-0.0212432,0.183879,0.0456331
1413393237055760384,-2.65157,2.94736,1.77996,0.000410264,0.818413,-0.0369247,0.573442,0.221392,-0.0106576,0.19053,-0.000766056,0.0180642,0.0580828,-0.0233297,0.185732,0.0346287
1413393237105760512,-2.64106,2.95232,1.79882,0.0100596,0.8166,-0.0321292,0.576221,0.220589,-0.00934009,0.272167,-0.000755455,0.018447,0.0584985,-0.0441131,0.149755,0.0817479
1413393237155760384,-2.62917,2.94924,1.80839,0.017231,0.814251,-0.0275994,0.579601,0.229697,-0.0013057,0.248582,-0.000784515,0.0182374,0.0582422,-0.0263542,0.171383,0.064675
1413393237205760512,-2.61706,2.94727,1.81612,0.0240815,0.812531,-0.0223419,0.581992,0.235792,0.0095257,0.19328,-0.000780096,0.018132,0.0581638,-0.0211683,0.184243,0.0461167
1413393237255760384,-2.60803,2.95288,1.83313,0.0314864,0.810996,-0.0171609,0.583952,0.234145,0.0202814,0.137019,-0.000734875,0.0185366,0.0586323,-0.0473609,0.142467,0.088676
1413393237305760512,-2.59433,2.95395,1.8357,0.0349104,0.811488,-0.0138088,0.583163,0.231313,0.0501972,0.0731858,-0.000781327,0.0183569,0.0583619,-0.038462,0.158515,0.081727
1413393237355760384,-2.5822,2.95501,1.83282,0.0366975,0.811825,-0.0111669,0.58264,0.23317,0.0800772,-0.0148399,-0.000784545,0.0182374,0.0582423,-0.0266723,0.171766,0.0660605
1413393237405760512,-2.57485,2.96278,1.83812,0.0387741,0.810842,-0.00892381,0.583911,0.215869,0.100502,-0.0681575,-0.000745538,0.0185687,0.0587236,-0.0468238,0.13689,0.0933011
1413393237455760384,-2.56225,2.96886,1.83226,0.03562,0.810648,-0.0090635,0.58438,0.21339,0.143301,-0.101383,-0.00075549,0.0184472,0.0584992,-0.0482587,0.150204,0.0888625
1413393237505760512,-2.5499,2.97598,1.82473,0.0286471,0.810168,-0.0116244,0.585382,0.217073,0.170806,-0.125918,-0.00078134,0.018357,0.0583621,-0.0390909,0.158675,0.0828991
1413393237555760384,-2.54369,2.98584,1.82324,0.0205006,0.81013,-0.0157465,0.58568,0.194785,0.184028,-0.104205,-0.000764331,0.0185772,0.0588105,-0.0463754,0.132852,0.0967108
1413393237605760512,-2.53341,2.99489,1.81867,0.01099,0.809892,-0.0199551,0.586137,0.185346,0.192066,-0.0994923,-0.000734859,0.0185369,0.058633,-0.0489559,0.141408,0.0933262
1413393237655760384,-2.52226,3.00497,1.81192,0.00166796,0.811206,-0.0243823,0.58425,0.179912,0.190407,-0.0873623,-0.000755475,0.0184473,0.0584994,-0.0487085,0.15004,0.0893681
1413393237705760512,-2.51662,3.01482,1.80864,-0.00512196,0.811396,-0.0276461,0.583821,0.167569,0.173718,-0.0916226,-0.000775339,0.018591,0.0589012,-0.0514779,0.129385,0.108576
1413393237755760384,-2.50802,3.02214,1.80576,-0.0105722,0.812427,-0.029211,0.582235,0.158608,0.156485,-0.0765304,-0.000745536,0.0185689,0.0587242,-0.0457112,0.135251,0.0967334
1413393237805760512,-2.49905,3.02969,1.80241,-0.0139097,0.813413,-0.0297209,0.58076,0.170679,0.135477,-0.0486883,-0.000734836,0.018537,0.0586332,-0.0486846,0.141173,0.093821
1413393237855760384,-2.49083,3.0372,1.79898,-0.0132163,0.814801,-0.0282958,0.578899,0.17623,0.108208,-0.0577592,-0.000778029,0.0186445,0.0589748,-0.057586,0.121894,0.129448
1413393237905760512,-2.48303,3.04028,1.79753,-0.0120718,0.816926,-0.0257882,0.57604,0.175066,0.0845887,-0.0334141,-0.000764367,0.0185774,0.0588111,-0.0448384,0.131266,0.0999546
1413393237955760384,-2.47377,3.04431,1.7962,-0.00991602,0.818246,-0.0236784,0.574295,0.174713,0.0617451,-0.0456789,-0.000745538,0.018569,0.0587244,-0.0453585,0.135047,0.0972656
1413393238005760512,-2.46396,3.04887,1.79278,-0.00184456,0.821299,-0.0183696,0.570199,0.175312,0.0449479,-0.0477766,-0.000783303,0.0187051,0.0590696,-0.0641996,0.116501,0.147796
1413393238055760384,-2.45634,3.04982,1.78993,0.00412016,0.823812,-0.0133018,0.566692,0.194759,0.046726,-0.0311023,-0.000775409,0.0185911,0.0589017,-0.0531137,0.128846,0.11497
1413393238105760512,-2.44579,3.05104,1.78839,0.00908946,0.826223,-0.00985894,0.563184,0.215088,0.0425026,-0.0347328,-0.000764391,0.0185774,0.0588112,-0.0447526,0.13105,0.100397
1413393238155760384,-2.43415,3.05562,1.78803,0.0151173,0.826708,-0.00783825,0.562374,0.219556,0.0402279,0.00324868,-0.000782876,0.0187451,0.0591901,-0.0702186,0.117016,0.157434
1413393238205760512,-2.42275,3.05748,1.78906,0.0186817,0.827392,-0.00645883,0.561278,0.248166,0.0630316,0.0112847,-0.000778108,0.0186446,0.0589753,-0.0612932,0.121705,0.142198
1413393238255760384,-2.41057,3.06012,1.7903,0.0213284,0.827626,-0.00564754,0.560846,0.262878,0.0789556,0.0531184,-0.000775431,0.0185911,0.0589019,-0.0537627,0.128885,0.116719
1413393238305760512,-2.39701,3.06603,1.79545,0.0247225,0.828089,-0.00661309,0.560013,0.290785,0.0915205,0.126904,-0.000795663,0.0187991,0.0592912,-0.0722724,0.118267,0.159945
1413393238355760384,-2.38035,3.07112,1.80337,0.0255865,0.828418,-0.00801151,0.559469,0.33499,0.123313,0.152951,-0.000783376,0.0187052,0.0590702,-0.067889,0.116083,0.162197
1413393238405760512,-2.36184,3.0771,1.81176,0.0256188,0.827959,-0.00972021,0.56012,0.393813,0.140345,0.209311,-0.000778118,0.0186446,0.0589755,-0.0617463,0.121574,0.145101
1413393238455760384,-2.34449,3.08573,1.82516,0.0233851,0.826736,-0.0138043,0.561934,0.402031,0.160378,0.251499,-0.000816675,0.0188164,0.0593705,-0.0670314,0.118196,0.157224
1413393238505760512,-2.32257,3.09393,1.8366,0.0172428,0.825497,-0.0200887,0.563786,0.41429,0.171567,0.223676,-0.000782918,0.0187453,0.0591908,-0.073227,0.11663,0.165284
1413393238555760384,-2.3012,3.10201,1.84638,0.00968156,0.822988,-0.0271826,0.567325,0.413768,0.174578,0.168247,-0.000783384,0.0187053,0.0590703,-0.0682027,0.115942,0.163566
1413393238605760512,-2.28212,3.11143,1.85448,0.00118311,0.820826,-0.0349617,0.570106,0.426754,0.162909,0.116048,-0.000826464,0.0188542,0.0594552,-0.0637474,0.122062,0.151371
1413393238655760384,-2.26024,3.11888,1.85882,-0.00676829,0.819084,-0.0421332,0.572084,0.433288,0.139687,0.0742399,-0.0007957,0.0187993,0.0592918,-0.0736753,0.118294,0.159555
1413393238705760512,-2.2378,3.12507,1.86076,-0.0127766,0.8177,-0.0476174,0.57353,0.43042,0.113895,0.0095764,-0.000782924,0.0187453,0.059191,-0.073594,0.116583,0.16507
1413393238755760384,-2.21703,3.13031,1.86047,-0.0171368,0.816819,-0.0518431,0.574304,0.436071,0.0799802,-0.0321243,-0.000833378,0.0188966,0.0595521,-0.0620638,0.125908,0.144139
1413393238805760512,-2.19576,3.13337,1.85861,-0.0180868,0.815762,-0.0536496,0.57561,0.438017,0.0451061,-0.0422843,-0.000816757,0.0188166,0.0593712,-0.0654018,0.119204,0.153098
1413393238855760384,-2.17351,3.1341,1.85715,-0.0160957,0.81557,-0.0528895,0.576012,0.433809,-0.000737134,-0.0247936,-0.000795717,0.0187994,0.059292,-0.0736616,0.118321,0.158822
1413393238905760512,-2.15115,3.13309,1.85516,-0.0108296,0.815821,-0.0500935,0.57603,0.447263,-0.0343877,-0.0197164,-0.000847064,0.0189313,0.0596419,-0.0584219,0.126974,0.137102
1413393238955760384,-2.1296,3.1311,1.85464,-0.00229721,0.816255,-0.0448316,0.575945,0.437858,-0.0659545,-0.000143889,-0.000826554,0.0188544,0.0594558,-0.0616105,0.124336,0.146568
1413393239005760512,-2.10853,3.12668,1.85591,0.00689729,0.816137,-0.0397593,0.576448,0.432745,-0.093707,0.0238524,-0.000816801,0.0188166,0.0593713,-0.0648613,0.119597,0.152427
1413393239055760384,-2.08489,3.12234,1.85656,0.0147822,0.816647,-0.034346,0.575925,0.446591,-0.0740617,0.014986,-0.0008407,0.0189799,0.0597368,-0.0553467,0.124772,0.132598
1413393239105760512,-2.0631,3.11873,1.8563,0.0213945,0.81678,-0.0302877,0.575757,0.442334,-0.0908009,0.00555938,-0.000833463,0.0188968,0.0595527,-0.0612512,0.128199,0.139258
1413393239155760384,-2.04166,3.11457,1.85731,0.0262445,0.816804,-0.0275454,0.575659,0.441854,-0.0760977,0.0296355,-0.000826589,0.0188544,0.059456,-0.0615475,0.124819,0.1459
1413393239205760512,-2.01752,3.11071,1.85873,0.0299143,0.817264,-0.0249003,0.574947,0.455677,-0.0484268,0.00720832,-0.000840874,0.0189899,0.059869,-0.0535094,0.120553,0.126796
1413393239255760384,-1.99538,3.1086,1.85874,0.0320296,0.81704,-0.0239309,0.575193,0.451288,-0.051858,0.0147293,-0.000847151,0.0189315,0.0596425,-0.0574333,0.127244,0.13309
1413393239305760512,-1.97322,3.10727,1.85976,0.0345438,0.817366,-0.0230264,0.574622,0.456395,-0.0206033,0.0270574,-0.000833486,0.0188968,0.0595528,-0.0613052,0.128282,0.138704
1413393239355760384,-1.94926,3.10618,1.86135,0.035202,0.817983,-0.0223941,0.573728,0.463408,0.000787942,0.0317659,-0.000852567,0.0189917,0.0599732,-0.0487486,0.118167,0.116061
1413393239405760512,-1.92588,3.10642,1.86269,0.035853,0.818192,-0.0227678,0.573375,0.469739,0.0117712,0.0378879,-0.000840755,0.0189801,0.0597373,-0.0536595,0.122469,0.130432
1413393239455760384,-1.90245,3.10825,1.86505,0.0351931,0.818795,-0.0234643,0.572525,0.475903,0.0458486,0.0483519,-0.000847174,0.0189316,0.0596426,-0.0571276,0.12696,0.132716
1413393239505760512,-1.87807,3.11069,1.86905,0.0370898,0.818848,-0.0216686,0.572401,0.489709,0.0553222,0.0740979,-0.00086808,0.0190001,0.0600558,-0.0432055,0.118344,0.10791
1413393239555760384,-1.85297,3.11341,1.87275,0.035238,0.819195,-0.0233975,0.571953,0.49392,0.0775412,0.0774911,-0.000840911,0.0189901,0.0598697,-0.0522085,0.116892,0.124608
1413393239605760512,-1.82849,3.11891,1.87724,0.0311369,0.819679,-0.025505,0.571407,0.502747,0.11381,0.089129,-0.000840764,0.0189802,0.0597375,-0.0534372,0.121898,0.130348
1413393239655760384,-1.8029,3.12487,1.88188,0.0234652,0.819488,-0.030093,0.571825,0.515083,0.112633,0.102355,-0.000883908,0.0190258,0.0601384,-0.0398266,0.119088,0.101475
1413393239705760512,-1.77682,3.12967,1.88628,0.0127917,0.819222,-0.0378843,0.572081,0.518925,0.108822,0.10476,-0.000852591,0.0189918,0.0599739,-0.047301,0.115213,0.110862
1413393239755760384,-1.75109,3.13481,1.89275,0.00427207,0.818899,-0.0434006,0.572278,0.520336,0.106474,0.106603,-0.000840906,0.0189902,0.0598699,-0.0522397,0.116215,0.124106
1413393239805760512,-1.72396,3.14058,1.89732,-0.00150123,0.818774,-0.0465458,0.572224,0.533875,0.0687047,0.102165,-0.000887148,0.0190328,0.0602091,-0.0357715,0.120921,0.0937261
1413393239855760384,-1.69763,3.14294,1.90131,-0.00419482,0.819631,-0.048857,0.57079,0.532701,0.0477393,0.0804296,-0.00086811,0.0190002,0.0600564,-0.0410985,0.118137,0.102325
1413393239905760512,-1.67113,3.14396,1.90655,-0.00233785,0.820448,-0.0473548,0.569752,0.536571,0.020496,0.102491,-0.000852594,0.0189919,0.0599741,-0.0471094,0.114981,0.109723
1413393239955760384,-1.64291,3.14565,1.91085,-0.000918494,0.820545,-0.0458286,0.569741,0.554092,-0.000932393,0.103664,-0.00088618,0.0190683,0.0603198,-0.0329979,0.122279,0.0929026
1413393240005760512,-1.61528,3.14496,1.91518,0.00348959,0.819935,-0.0427446,0.570849,0.563697,-0.0203836,0.102557,-0.000883961,0.0190259,0.060139,-0.0378093,0.120498,0.0973921
1413393240055760384,-1.58747,3.14295,1.921,0.00858103,0.819355,-0.0386582,0.571918,0.564042,-0.0367686,0.116666,-0.000868129,0.0190002,0.0600566,-0.0407064,0.118543,0.101793
1413393240105760512,-1.55846,3.14123,1.92757,0.0159708,0.817913,-0.0329796,0.574175,0.572016,-0.0477273,0.120461,-0.00085663,0.0191173,0.0604406,-0.022355,0.126021,0.10356
1413393240155760384,-1.52922,3.1401,1.93217,0.0219353,0.817033,-0.0280168,0.575493,0.575896,-0.0337063,0.0888366,-0.000887198,0.0190328,0.0602096,-0.0339465,0.122398,0.090213
1413393240205760512,-1.50138,3.13813,1.93605,0.0259989,0.816121,-0.0244313,0.576779,0.558904,-0.0229362,0.0509776,-0.000883989,0.0190259,0.0601391,-0.0376843,0.120695,0.097112
1413393240255760384,-1.4737,3.13669,1.93765,0.0289495,0.816334,-0.0217647,0.576444,0.555685,-0.0122364,-0.00754009,-0.000846694,0.0191444,0.0605245,-0.000587479,0.12941,0.121259
1413393240305760512,-1.44493,3.13742,1.93516,0.0278114,0.816605,-0.0217249,0.576117,0.553679,0.0093954,-0.0568823,-0.000886219,0.0190684,0.0603203,-0.0314796,0.123192,0.0918803
1413393240355760384,-1.41709,3.13822,1.93106,0.0257755,0.816596,-0.0226298,0.576189,0.554241,0.0204446,-0.105743,-0.000887208,0.0190329,0.0602097,-0.0337362,0.122474,0.0896375
1413393240405760512,-1.39008,3.13902,1.92357,0.0213228,0.816139,-0.0259781,0.576877,0.55988,0.030577,-0.155291,-0.000853419,0.0191319,0.0605988,0.0127761,0.130449,0.134451
1413393240455760384,-1.3622,3.1402,1.91613,0.017006,0.815528,-0.0283279,0.577773,0.561831,0.0327051,-0.19586,-0.000856602,0.0191175,0.0604412,-0.0172775,0.128751,0.109274
1413393240505760512,-1.33277,3.14242,1.90575,0.0108926,0.81544,-0.0325312,0.577824,0.561574,0.0300799,-0.207866,-0.00088622,0.0190684,0.0603205,-0.0312162,0.123334,0.0922272
1413393240555760384,-1.30887,3.14463,1.89466,0.00688565,0.814325,-0.0356414,0.579274,0.53097,0.0278858,-0.186676,-0.000852467,0.0191396,0.0607062,0.008676,0.126684,0.138028
1413393240605760512,-1.28202,3.14434,1.88723,0.00337285,0.814049,-0.038352,0.579519,0.521373,0.0168905,-0.139981,-0.000846645,0.0191446,0.0605252,0.0103946,0.133813,0.133056
1413393240655760384,-1.25217,3.14464,1.8842,0.00242762,0.814369,-0.0396872,0.578985,0.578537,-0.00648217,-0.0651518,-0.000856577,0.0191176,0.0604414,-0.0158499,0.129529,0.111159
1413393240705760512,-1.228,3.1453,1.88164,0.00370049,0.814065,-0.0403691,0.579357,0.58119,-0.0245358,0.0706981,-0.000846294,0.0191833,0.0608089,-0.00430306,0.123798,0.138414
1413393240755760384,-1.19723,3.14321,1.88588,0.00802142,0.813559,-0.0389761,0.580119,0.579737,-0.0312227,0.128146,-0.000853381,0.0191321,0.0605994,0.0223437,0.133447,0.144495
1413393240805760512,-1.16696,3.14088,1.8954,0.0125334,0.812329,-0.0374988,0.581858,0.587949,-0.0415479,0.162461,-0.000846625,0.0191447,0.0605253,0.0123945,0.13461,0.134945
1413393240855760384,-1.14305,3.13958,1.90306,0.0179538,0.810483,-0.0353174,0.584421,0.553778,-0.0368033,0.139327,-0.000854996,0.019202,0.0609135,-0.0200719,0.120663,0.138201
1413393240905760512,-1.11425,3.13815,1.90704,0.021373,0.808036,-0.0347346,0.58772,0.532569,-0.0442897,0.0691166,-0.000852446,0.0191397,0.0607068,0.00965592,0.125334,0.141527
1413393240955760384,-1.08693,3.13608,1.90594,0.0248992,0.805356,-0.034432,0.591266,0.495229,-0.0312704,-0.0149553,-0.000853375,0.0191322,0.0605995,0.0227213,0.13344,0.145005
1413393241005760512,-1.06651,3.13339,1.90926,0.0270837,0.802648,-0.0345149,0.594838,0.483365,-0.0288216,-0.0501337,-0.000862843,0.0192331,0.0609877,-0.0292946,0.118286,0.141288
1413393241055760384,-1.04096,3.13326,1.90377,0.0274547,0.800406,-0.0358768,0.597754,0.470102,-0.0287974,-0.116749,-0.000846281,0.0191834,0.0608095,-0.0101804,0.120047,0.1377
1413393241105760512,-1.01734,3.13281,1.89251,0.0249845,0.799435,-0.0393465,0.598942,0.448398,-0.0106277,-0.205179,-0.000852442,0.0191397,0.060707,0.00871841,0.12456,0.141184
1413393241155760384,-0.998609,3.12951,1.88773,0.0204595,0.799399,-0.04449,0.598802,0.419141,-0.0173386,-0.235533,-0.000859671,0.0192896,0.06107,-0.0319994,0.116783,0.142363
1413393241205760512,-0.976548,3.12993,1.87442,0.0156312,0.799988,-0.0492178,0.597789,0.403039,-0.0182883,-0.264689,-0.000855003,0.0192022,0.0609141,-0.0274994,0.117122,0.137335
1413393241255760384,-0.956124,3.12966,1.85778,0.0118058,0.800951,-0.0535883,0.596211,0.37714,-0.0277429,-0.284225,-0.000846264,0.0191834,0.0608097,-0.0112301,0.119471,0.137324
1413393241305760512,-0.940535,3.12504,1.84967,0.0088917,0.803291,-0.0575681,0.592731,0.360012,-0.0508961,-0.24648,-0.000863773,0.0193079,0.0611532,-0.0299657,0.116581,0.141769
1413393241355760384,-0.921994,3.1231,1.83647,0.00897188,0.808539,-0.0590603,0.585403,0.34241,-0.0637761,-0.241919,-0.000862862,0.0192332,0.0609883,-0.0338765,0.116683,0.142072
1413393241405760512,-0.903854,3.1203,1.82314,0.0089561,0.81197,-0.0605934,0.580477,0.339843,-0.0880254,-0.236862,-0.000855003,0.0192022,0.0609143,-0.0282572,0.116804,0.137293
1413393241455760384,-0.888804,3.1131,1.81521,0.0119752,0.814624,-0.060355,0.576717,0.337824,-0.114155,-0.195006,-0.000862775,0.0193102,0.0612452,-0.0271221,0.114648,0.141491
1413393241505760512,-0.871637,3.10795,1.80575,0.0165785,0.815919,-0.0578936,0.575022,0.339696,-0.119225,-0.158776,-0.000859694,0.0192898,0.0610706,-0.0329638,0.116683,0.143635
1413393241555760384,-0.853583,3.10206,1.79722,0.0217285,0.815468,-0.055056,0.575769,0.346575,-0.141444,-0.154006,-0.000862873,0.0192332,0.0609885,-0.0340348,0.116693,0.142365
1413393241605760512,-0.837345,3.09364,1.79082,0.0276913,0.813819,-0.0517065,0.57815,0.34792,-0.139814,-0.154659,-0.000862214,0.0193529,0.0613358,-0.0258282,0.111625,0.140987
1413393241655760384,-0.82004,3.08715,1.78316,0.0320149,0.812762,-0.0484718,0.579692,0.343003,-0.127843,-0.140898,-0.000863805,0.019308,0.0611537,-0.0286186,0.116979,0.142147
1413393241705760512,-0.802612,3.08115,1.77653,0.0364566,0.81147,-0.0451781,0.581504,0.338951,-0.126627,-0.139476,-0.000859699,0.0192898,0.0610707,-0.0327983,0.116792,0.143737
1413393241755760384,-0.786401,3.0744,1.76898,0.0386191,0.811189,-0.043925,0.581852,0.335655,-0.116692,-0.134106,-0.000881489,0.0194168,0.0613978,-0.0261442,0.109171,0.139553
1413393241805760512,-0.769227,3.06905,1.76232,0.0406968,0.81202,-0.0417381,0.580711,0.33241,-0.0931468,-0.134741,-0.000862795,0.0193104,0.0612457,-0.0253392,0.113949,0.141569
1413393241855760384,-0.752471,3.06503,1.75623,0.0416678,0.812767,-0.0402175,0.579703,0.336056,-0.0830812,-0.12215,-0.000863809,0.0193081,0.0611539,-0.0283241,0.117001,0.142081
1413393241905760512,-0.736541,3.06126,1.75086,0.0421865,0.811801,-0.0393259,0.581079,0.331792,-0.0653458,-0.0827251,-0.000877741,0.0194303,0.0614803,-0.0274066,0.10855,0.136552
1413393241955760384,-0.719521,3.05839,1.74677,0.0426063,0.809647,-0.0372463,0.584183,0.32569,-0.0351161,-0.0832407,-0.000862221,0.0193531,0.0613364,-0.0249327,0.109792,0.14104
1413393242005760512,-0.703107,3.05728,1.74238,0.0420667,0.808084,-0.0362333,0.586445,0.323185,-0.0228544,-0.083509,-0.000862793,0.0193104,0.0612459,-0.0251834,0.113681,0.14169
1413393242055760384,-0.688562,3.05743,1.73916,0.0417539,0.805386,-0.0344535,0.590274,0.312698,0.00956807,-0.0613945,-0.000896877,0.0194144,0.0615545,-0.0306379,0.10793,0.132279
1413393242105760512,-0.672687,3.05735,1.73533,0.0413683,0.802853,-0.0328486,0.593833,0.296655,0.0271022,-0.0542989,-0.000881518,0.0194171,0.0613983,-0.0263851,0.107354,0.138831
1413393242155760384,-0.658271,3.05919,1.73301,0.0389989,0.799355,-0.0332443,0.598671,0.272998,0.0398723,-0.0455351,-0.000862213,0.0193532,0.0613366,-0.0249546,0.109438,0.140989
1413393242205760512,-0.646397,3.06282,1.7321,0.0354086,0.79558,-0.033684,0.603874,0.243393,0.0719944,-0.029816,-0.000902194,0.0194675,0.0616596,-0.0330436,0.108211,0.128952
1413393242255760384,-0.634446,3.06559,1.73001,0.0335222,0.793047,-0.0338226,0.607297,0.208776,0.0715837,-0.0245127,-0.000877753,0.0194306,0.0614809,-0.0282361,0.10779,0.134443
1413393242305760512,-0.624916,3.0691,1.72852,0.0312938,0.791909,-0.0348775,0.608839,0.167641,0.0773969,-0.0208896,-0.000881531,0.0194172,0.0613985,-0.0265093,0.107176,0.138533
1413393242355760384,-0.617641,3.0746,1.7287,0.0271421,0.793142,-0.0366458,0.607328,0.144926,0.0977449,-0.0305661,-0.000928105,0.0194825,0.0617269,-0.0335966,0.108085,0.126652
1413393242405760512,-0.611154,3.07935,1.72716,0.0213576,0.796346,-0.0400053,0.603139,0.106918,0.0975765,-0.0245736,-0.00089692,0.0194145,0.061555,-0.0322116,0.107805,0.129332
1413393242455760384,-0.606576,3.08373,1.72529,0.0147619,0.80125,-0.0442779,0.596507,0.0769815,0.0954525,-0.0228086,-0.000877759,0.0194306,0.061481,-0.0283549,0.107818,0.134017
1413393242505760512,-0.602788,3.08886,1.72527,0.00724196,0.807244,-0.0488116,0.588152,0.0618307,0.0851629,-0.0292333,-0.000969627,0.019471,0.0617945,-0.0352037,0.107524,0.1284
1413393242555760384,-0.600057,3.09241,1.72465,0.00189707,0.812479,-0.0521894,0.580647,0.0576558,0.0602056,-4.30851e-05,-0.000902239,0.0194676,0.0616602,-0.0344595,0.108509,0.126882
1413393242605760512,-0.597556,3.09467,1.72423,-0.00216787,0.816472,-0.0549441,0.574761,0.0540863,0.0291177,0.00552105,-0.000896937,0.0194145,0.0615552,-0.0325118,0.107832,0.128991
1413393242655760384,-0.593904,3.09587,1.72506,-0.00422292,0.819188,-0.055725,0.570797,0.0706938,0.0067277,0.0281059,-0.000979385,0.0194836,0.061844,-0.0365616,0.107022,0.13115
1413393242705760512,-0.590243,3.09488,1.72713,-0.00617162,0.819951,-0.0573228,0.569523,0.0842446,-0.0336214,0.029064,-0.000928194,0.0194826,0.0617274,-0.0340743,0.108518,0.125863
1413393242755760384,-0.585812,3.0928,1.72913,-0.0100012,0.819618,-0.0589174,0.569785,0.0932175,-0.055274,0.0583915,-0.00090226,0.0194677,0.0616604,-0.034512,0.10859,0.126806
1413393242805760512,-0.580959,3.08897,1.73152,-0.0115119,0.818952,-0.0573094,0.570877,0.106718,-0.0962683,0.0626421,-0.000992937,0.0195212,0.0619394,-0.0379128,0.107803,0.131815
1413393242855760384,-0.574772,3.08327,1.73556,-0.0110654,0.818441,-0.0527281,0.572059,0.118494,-0.126395,0.0822585,-0.000969777,0.0194711,0.061795,-0.0355449,0.107308,0.129077
1413393242905760512,-0.568444,3.07658,1.73979,-0.00565698,0.818177,-0.0424185,0.573372,0.131013,-0.139726,0.0709117,-0.00092823,0.0194827,0.0617276,-0.0340081,0.108636,0.125907
1413393242955760384,-0.562692,3.0687,1.7435,-0.00225116,0.819348,-0.0323711,0.572377,0.130284,-0.170871,0.0918535,-0.0010039,0.0195532,0.0620297,-0.0385144,0.11238,0.130409
1413393243005760512,-0.554982,3.06055,1.74836,-0.000254646,0.821256,-0.0217443,0.570146,0.143785,-0.162201,0.0931155,-0.000979528,0.0194836,0.0618445,-0.0371875,0.10632,0.132455
1413393243055760384,-0.547113,3.05239,1.75326,-0.000455383,0.82263,-0.0101508,0.568487,0.157523,-0.159181,0.0798085,-0.000969834,0.0194711,0.0617951,-0.0356607,0.107158,0.129328
1413393243105760512,-0.540481,3.04421,1.75787,-0.0028918,0.823875,0.00066051,0.566764,0.170825,-0.161248,0.0966021,-0.000989838,0.0195662,0.0621264,-0.0385253,0.118583,0.125949
1413393243155760384,-0.530514,3.03714,1.76335,-0.00816806,0.824122,0.0117295,0.566232,0.188408,-0.134593,0.117226,-0.000993063,0.0195213,0.0619399,-0.0385224,0.107686,0.132711
1413393243205760512,-0.520257,3.03028,1.76969,-0.0145673,0.821612,0.0228315,0.569403,0.20352,-0.128143,0.142146,-0.000979552,0.0194836,0.0618446,-0.037281,0.106217,0.132626
1413393243255760384,-0.512634,3.0242,1.77765,-0.0200704,0.816469,0.0319793,0.576153,0.207828,-0.136002,0.143387,-0.000974127,0.0195727,0.062233,-0.0398389,0.12322,0.120305
1413393243305760512,-0.500781,3.01775,1.78342,-0.0252654,0.81178,0.0406189,0.582002,0.206728,-0.111048,0.0958165,-0.001004,0.0195534,0.0620302,-0.038412,0.113617,0.130965
1413393243355760384,-0.489586,3.01143,1.78677,-0.0310638,0.808046,0.0470683,0.586414,0.206228,-0.12837,0.0461549,-0.000993082,0.0195213,0.06194,-0.0385315,0.107807,0.132721
1413393243405760512,-0.482699,3.00655,1.78854,-0.0347141,0.803755,0.0523765,0.591633,0.18687,-0.116434,-0.00160113,-0.000967519,0.019581,0.0623289,-0.0408254,0.127849,0.117222
1413393243455760384,-0.47243,3.00056,1.78689,-0.0389554,0.801656,0.0571647,0.59377,0.17006,-0.103647,-0.0372143,-0.000989892,0.0195664,0.0621269,-0.037883,0.120868,0.126109
1413393243505760512,-0.46355,2.99416,1.78374,-0.0427478,0.799864,0.0608756,0.595554,0.153683,-0.111819,-0.0980595,-0.00100403,0.0195535,0.0620303,-0.0383137,0.11389,0.13103
1413393243555760384,-0.458347,2.9904,1.77739,-0.0454993,0.7983,0.0638435,0.597136,0.130963,-0.0998607,-0.140875,-0.000974689,0.0196083,0.0624131,-0.0412759,0.134634,0.116281
1413393243605760512,-0.451683,2.98572,1.76993,-0.0476453,0.798294,0.0666172,0.596673,0.112231,-0.100225,-0.145721,-0.000974163,0.0195729,0.0622336,-0.0394345,0.125706,0.120027
1413393243655760384,-0.4459,2.97944,1.76189,-0.0492467,0.798707,0.0690305,0.595715,0.0864437,-0.101551,-0.1531,-0.000989913,0.0195664,0.0621271,-0.0377717,0.121181,0.126126
1413393243705760512,-0.443114,2.976,1.75425,-0.0493786,0.799534,0.0713162,0.594324,0.0659359,-0.0802342,-0.121894,-0.000989199,0.0196117,0.062488,-0.0407045,0.137776,0.11851
1413393243755760384,-0.440937,2.97271,1.7491,-0.0498743,0.801273,0.0729655,0.591735,0.0417387,-0.0806233,-0.109418,-0.00096755,0.0195811,0.0623295,-0.0407471,0.129844,0.117124
1413393243805760512,-0.438625,2.96793,1.74401,-0.0495587,0.802828,0.0746351,0.589442,0.0191442,-0.0786805,-0.080469,-0.000974176,0.0195729,0.0622337,-0.0394407,0.126001,0.119964
1413393243855760384,-0.438458,2.96464,1.73898,-0.0509558,0.80315,0.074577,0.58889,0.0018191,-0.0610904,-0.0721741,-0.00100552,0.0196101,0.0625669,-0.0401111,0.140656,0.119714
1413393243905760512,-0.439272,2.96214,1.73724,-0.0504014,0.803554,0.0756553,0.58825,-0.0113378,-0.0602458,-0.0373023,-0.000974744,0.0196085,0.0624137,-0.0411426,0.136564,0.117406
1413393243955760384,-0.439893,2.95951,1.73578,-0.0505182,0.803684,0.0763689,0.587969,-0.0230447,-0.0536979,-0.0265975,-0.000967568,0.0195812,0.0623296,-0.0407644,0.130024,0.117106
1413393244005760512,-0.44165,2.95698,1.73339,-0.0504974,0.803798,0.0766224,0.587782,-0.0367128,-0.0418805,-0.0217558,-0.00101715,0.019638,0.0626495,-0.0401053,0.137192,0.120941
1413393244055760384,-0.443754,2.95488,1.73311,-0.0492537,0.803449,0.0773334,0.588271,-0.0476361,-0.033679,-0.000887349,-0.000989282,0.0196118,0.0624886,-0.0403863,0.138879,0.120451
1413393244105760512,-0.446904,2.95383,1.73408,-0.0482436,0.803765,0.0780737,0.587826,-0.0615144,-0.0222453,0.0220323,-0.000974773,0.0196085,0.0624138,-0.0410914,0.136856,0.11771
1413393244155760384,-0.452837,2.95493,1.73607,-0.0476168,0.803982,0.079835,0.587343,-0.083786,-0.00949148,0.00542918,-0.00103466,0.0196702,0.0627232,-0.0483963,0.124606,0.11838
1413393244205760512,-0.454788,2.95274,1.7338,-0.0502317,0.803512,0.0816491,0.58752,-0.0934983,0.0175708,0.0075175,-0.00100563,0.0196103,0.0625675,-0.0396189,0.141503,0.121669
1413393244255760384,-0.459462,2.95416,1.73518,-0.052483,0.803704,0.086294,0.586395,-0.104362,0.0315242,0.0138811,-0.000989309,0.0196119,0.0624887,-0.0402982,0.138909,0.120835
1413393244305760512,-0.468228,2.95862,1.73876,-0.0549719,0.803926,0.0926407,0.584892,-0.117011,0.0521042,0.0318689,-0.0010189,0.0196939,0.0628154,-0.0565439,0.122756,0.113421
1413393244355760384,-0.471429,2.95974,1.73663,-0.0602393,0.803688,0.0988224,0.583687,-0.126652,0.0791279,0.0150262,-0.00101724,0.0196381,0.06265,-0.0401673,0.136863,0.12119
1413393244405760512,-0.477945,2.96323,1.73586,-0.0652418,0.80224,0.104132,0.584218,-0.133443,0.0725391,-0.020942,-0.00100565,0.0196103,0.0625676,-0.0395561,0.141627,0.121821
1413393244455760384,-0.486761,2.96787,1.73747,-0.0705731,0.800517,0.108244,0.585214,-0.149725,0.0837305,-0.0525284,-0.00101561,0.0196887,0.0628803,-0.0643934,0.135074,0.113012
1413393244505760512,-0.495018,2.97364,1.73359,-0.0763782,0.799723,0.111841,0.584894,-0.16744,0.0885478,-0.116236,-0.00103476,0.0196702,0.0627237,-0.0516928,0.123102,0.115195
1413393244555760384,-0.502465,2.97566,1.72202,-0.0819136,0.798223,0.113686,0.585838,-0.191144,0.0757149,-0.188171,-0.00101726,0.0196381,0.0626502,-0.0402916,0.136631,0.120927
1413393244605760512,-0.512247,2.97986,1.7151,-0.0861711,0.79828,0.115829,0.584729,-0.187224,0.0900164,-0.206155,-0.00101872,0.0196881,0.0629691,-0.0676355,0.141807,0.114222
1413393244655760384,-0.522755,2.98639,1.70725,-0.0901519,0.798785,0.118111,0.58298,-0.185546,0.0867029,-0.179698,-0.00101895,0.0196939,0.0628159,-0.0606285,0.122323,0.110244
1413393244705760512,-0.532962,2.98979,1.69917,-0.0934326,0.797874,0.119974,0.583331,-0.234886,0.0663706,-0.122668,-0.00103479,0.0196702,0.0627239,-0.0525373,0.122857,0.114411
1413393244755760384,-0.544389,2.99129,1.69307,-0.098216,0.798321,0.118891,0.582153,-0.256304,0.0615508,-0.109742,-0.00101262,0.0196924,0.0630499,-0.0676909,0.146542,0.114854
1413393244805760512,-0.557994,2.99517,1.68994,-0.103359,0.798346,0.117704,0.581469,-0.258504,0.0528393,-0.0478422,-0.00101565,0.0196888,0.0628808,-0.0673294,0.137218,0.114573
1413393244855760384,-0.571248,2.99819,1.68963,-0.107004,0.799124,0.117207,0.57984,-0.26497,0.0368236,0.0351873,-0.00101896,0.0196939,0.0628161,-0.0610499,0.12248,0.110065
1413393244905760512,-0.583766,2.99833,1.69397,-0.109543,0.798729,0.115494,0.580253,-0.238288,0.0269227,0.132565,-0.00100315,0.0197025,0.0631435,-0.0649088,0.148892,0.113378
1413393244955760384,-0.595586,2.99955,1.70187,-0.110002,0.798569,0.115612,0.580363,-0.247991,0.00814195,0.201665,-0.00101875,0.0196881,0.0629696,-0.0684596,0.144763,0.117836
1413393245005760512,-0.608025,2.9998,1.71107,-0.107293,0.799936,0.117558,0.578593,-0.246504,-0.0141386,0.186832,-0.00101566,0.0196888,0.0628809,-0.0673721,0.137847,0.11545
1413393245055760384,-0.62214,3.00076,1.72032,-0.105112,0.802006,0.118377,0.575956,-0.258925,-0.0221841,0.156585,-0.00101836,0.0197221,0.0632125,-0.0606187,0.147445,0.109793
1413393245105760512,-0.6338,2.99686,1.72609,-0.102213,0.804609,0.119567,0.572592,-0.257828,-0.0293556,0.106075,-0.00101265,0.0196925,0.0630504,-0.0668556,0.149119,0.117549
1413393245155760384,-0.646066,2.99509,1.73045,-0.10047,0.807738,0.119984,0.568392,-0.246538,-0.0448756,0.0614719,-0.00101877,0.0196881,0.0629697,-0.0683103,0.14515,0.118294
1413393245205760512,-0.65992,2.99493,1.73327,-0.0983861,0.810664,0.120597,0.564447,-0.243387,-0.0459912,0.0165121,-0.00102581,0.0197254,0.0632791,-0.057716,0.14752,0.107792
1413393245255760384,-0.67077,2.99078,1.73226,-0.0959399,0.81188,0.121527,0.562919,-0.234399,-0.0520894,-0.0372074,-0.00100316,0.0197025,0.0631441,-0.0632187,0.150305,0.113566
1413393245305760512,-0.681737,2.98763,1.72868,-0.0937821,0.812686,0.122564,0.561894,-0.216556,-0.0471142,-0.0920691,-0.00101266,0.0196925,0.0630505,-0.0666524,0.149326,0.117697
1413393245355760384,-0.693592,2.98784,1.72346,-0.0913763,0.812089,0.124069,0.562823,-0.204528,-0.0383509,-0.138959,-0.00102855,0.0197461,0.0633421,-0.0548057,0.146471,0.105795
1413393245405760512,-0.703308,2.98647,1.71531,-0.0895338,0.811199,0.125043,0.564185,-0.18372,-0.0437634,-0.170171,-0.00101839,0.0197222,0.0632131,-0.0587138,0.146758,0.107314
1413393245455760384,-0.711691,2.98209,1.70599,-0.0870214,0.809698,0.126089,0.566496,-0.187733,-0.0355807,-0.207268,-0.00100317,0.0197026,0.0631442,-0.0629808,0.150227,0.11334
1413393245505760512,-0.72202,2.98228,1.69459,-0.0853999,0.808253,0.127202,0.568554,-0.181312,-0.0223458,-0.238288,-0.00103166,0.0197537,0.0634391,-0.0508912,0.144825,0.102948
1413393245555760384,-0.730974,2.9812,1.68254,-0.0831943,0.806229,0.128085,0.571549,-0.176241,-0.0223717,-0.231147,-0.00102586,0.0197254,0.0632797,-0.0560951,0.146403,0.105528
1413393245605760512,-0.739669,2.98102,1.67131,-0.0812177,0.804427,0.128653,0.574239,-0.176552,-0.00982414,-0.226253,-0.0010184,0.0197222,0.0632132,-0.058498,0.146385,0.1068
1413393245655760384,-0.748572,2.97989,1.66096,-0.0794701,0.802822,0.128912,0.576665,-0.178545,0.00201836,-0.220868,-0.00104176,0.0197673,0.0635245,-0.0446206,0.141339,0.100612
1413393245705760512,-0.757406,2.98038,1.65048,-0.0766256,0.801873,0.129411,0.578257,-0.177625,0.0122195,-0.195916,-0.0010286,0.0197462,0.0633426,-0.0533032,0.145362,0.104462
