#timestamp, p_RS_R_x [m], p_RS_R_y [m], p_RS_R_z [m], q_RS_w [], q_RS_x [], q_RS_y [], q_RS_z [], v_RS_R_x [m s^-1], v_RS_R_y [m s^-1], v_RS_R_z [m s^-1], b_w_RS_S_x [rad s^-1], b_w_RS_S_y [rad s^-1], b_w_RS_S_z [rad s^-1], b_a_RS_S_x [m s^-2], b_a_RS_S_y [m s^-2], b_a_RS_S_z [m s^-2]
1413393212255760384,-1.07611,0.492467,1.32992,0.602398,-0.00116116,-0.798191,0.00261789,-2.99791e-05,0.0102951,0.00278065,-9.4134e-05,0.00102775,0.00359664,-4.71527e-05,1.60319e-05,2.74092e-06
1413393212305760512,-1.34173,0.264185,1.87864,0.603341,0.00634994,-0.797399,0.0096749,-0.00416203,0.00128881,0.000448873,-0.000103309,0.00116002,0.00401524,-0.00058804,2.60409e-05,0.000142723
1413393212355760384,-1.18443,0.362066,1.62876,0.602581,0.0181712,-0.797643,0.0182097,-0.00436072,0.000191116,0.00146285,-0.00012381,0.00125536,0.00435007,-0.000671675,1.5263e-05,0.000142513
1413393212405760512,-1.21891,0.316592,1.33068,0.602785,0.00583328,-0.797825,0.00954462,-0.00332986,-0.000339791,-0.00101412,-0.000106789,0.00138557,0.00476147,-0.0015915,-9.19127e-06,0.0002247
1413393212455760384,-1.19156,0.313855,1.35616,0.602811,0.00218194,-0.79784,0.00807913,-0.000365181,-0.00747601,-0.000505442,-0.000133755,0.00148727,0.00508348,-0.00190345,1.94066e-05,0.000495902
1413393212505760512,-1.2178,0.338155,1.50045,0.602626,0.0111136,-0.797815,0.0144864,-0.00117031,-0.00590244,0.00123913,-0.000143223,0.00159682,0.00545679,-0.00224956,-0.000117899,0.000399632
1413393212555760384,-1.22118,0.336883,1.51423,0.602611,0.0105239,-0.797841,0.0141132,-0.00107451,-0.00709802,-0.00220569,-0.000160668,0.00169927,0.0058173,-0.00244687,-0.000166597,0.000326431
1413393212605760512,-1.20729,0.32617,1.52452,0.602339,-0.00139567,-0.798224,0.0050337,-0.00175785,0.00152253,-0.000381612,-0.000176028,0.0017985,0.00614203,-0.00206813,0.000221854,0.000615946
1413393212655760384,-1.20223,0.320776,1.4524,0.602364,-0.00089605,-0.798206,0.00487472,-0.00181227,-0.000146041,0.000239981,-0.000179077,0.00189828,0.00650421,-0.00220092,0.000433538,0.000738602
1413393212705760512,-1.20039,0.318072,1.41687,0.602424,-0.000896307,-0.79816,0.0049948,0.00169685,-0.00235117,0.00104276,-0.000170965,0.00199557,0.00686137,-0.00202571,0.000558333,0.000539077
1413393212755760384,-1.20331,0.322472,1.4626,0.602479,0.000729863,-0.798113,0.00585249,0.00148519,0.00203736,0.00197513,-0.000182292,0.00209967,0.0072297,-0.00290802,0.000823751,0.00111894
1413393212805760512,-1.20482,0.323231,1.44677,0.602585,0.00189514,-0.798023,0.00689641,0.000822759,-0.00115045,0.00238306,-0.000194465,0.00219406,0.00756851,-0.00299888,0.00122142,0.00125603
1413393212855760384,-1.20869,0.327951,1.45193,0.602501,0.00365732,-0.798069,0.00808927,0.000495064,0.00217816,0.0015861,-0.000204212,0.00229324,0.00790521,-0.00351947,0.00145282,0.00135805
1413393212905760512,-1.20102,0.322299,1.51539,0.602707,-0.0035146,-0.797951,0.00262339,-0.0017906,0.00183738,0.000176131,-0.000207114,0.0024067,0.0082315,-0.00521381,0.00110642,0.00266751
1413393212955760384,-1.20075,0.320901,1.53311,0.602598,-0.00389389,-0.798032,0.00246617,-0.00230736,-0.00148792,-0.00112899,-0.000214135,0.00249586,0.00858474,-0.00533784,0.00127735,0.00249574
1413393213005760512,-1.20039,0.318089,1.5158,0.602576,-0.0045386,-0.798047,0.00183359,-0.000537112,0.0016426,-4.1704e-05,-0.000227214,0.00257883,0.00891047,-0.00508084,0.00122175,0.00234275
1413393213055760384,-1.18146,0.298113,1.43332,0.603046,-0.0158505,-0.797517,-0.00716334,-0.00140951,2.54234e-05,-0.00065936,-0.000232054,0.00271567,0.00931579,-0.00936502,-0.00231689,0.0030826
1413393213105760512,-1.19713,0.315255,1.4711,0.60284,-0.00650344,-0.797835,0.000720993,-0.00184763,-0.0011684,-0.00463569,-0.000251857,0.00281138,0.00961672,-0.00970479,0.000637571,0.00458724
1413393213155760384,-1.19802,0.315974,1.47563,0.602646,-0.00618771,-0.797984,0.000705735,-0.000624615,0.000421423,-0.000863454,-0.000255961,0.00290088,0.00991845,-0.00917101,0.000954195,0.00344002
1413393213205760512,-1.20024,0.318531,1.47727,0.602722,-0.00525514,-0.797933,0.00148177,0.00069646,0.00103244,-0.000207403,-0.000266976,0.00299415,0.0102663,-0.00961252,0.00108014,0.00393596
1413393213255760384,-1.20012,0.31877,1.46887,0.602681,-0.00525761,-0.797964,0.00134818,0.0021202,-1.32399e-05,0.00266408,-0.00028263,0.0030927,0.0105567,-0.0096257,0.000971268,0.0034794
1413393213305760512,-1.20054,0.318776,1.46842,0.602776,-0.00509297,-0.797893,0.00134378,0.0011134,-0.00197959,0.00287898,-0.00027689,0.00317655,0.0108833,-0.00971971,0.00105123,0.00368449
1413393213355760384,-1.20013,0.318966,1.46654,0.60275,-0.00522285,-0.797912,0.00174264,0.0024011,0.00191875,0.00105453,-0.00029108,0.00325489,0.0111787,-0.00919724,0.00104429,0.00346351
1413393213405760512,-1.18026,0.295726,1.41786,0.602878,-0.0185933,-0.797557,-0.00978614,0.00227755,0.00182878,0.00366305,-0.000286519,0.00334637,0.0114951,-0.00952874,-0.00468241,-0.000100869
1413393213455760384,-1.17616,0.290349,1.39563,0.602939,-0.0199726,-0.797463,-0.0109081,0.000721309,-0.00117578,0.00166477,-0.00028677,0.00342505,0.0118145,-0.0105844,-0.00627573,-0.0028568
1413393213505760512,-1.17621,0.289366,1.38133,0.602946,-0.0198532,-0.79746,-0.0109666,-0.000792468,-0.000432633,0.00216142,-0.000290953,0.00351472,0.0121109,-0.0110489,-0.00642932,-0.00305835
1413393213555760384,-1.18841,0.304626,1.42689,0.602879,-0.0151619,-0.797654,-0.00745624,-0.000172424,0.00127972,0.00297409,-0.000256136,0.00357895,0.0123932,-0.00959851,-0.00538271,-0.000789975
1413393213605760512,-1.18901,0.305391,1.42693,0.602883,-0.0149967,-0.797657,-0.00717221,0.000770511,0.00244885,0.00216919,-0.000307392,0.00364426,0.0127083,-0.00927605,-0.00550696,-0.000770225
1413393213655760384,-1.18917,0.305987,1.42573,0.602892,-0.014782,-0.797653,-0.00725286,0.000563637,0.000449907,0.000362521,-0.000319172,0.00375008,0.0130338,-0.0108083,-0.00531549,-0.000714811
1413393213705760512,-1.18914,0.306225,1.42485,0.602904,-0.0147765,-0.797646,-0.00705534,0.000540867,-0.00179863,-0.000255516,-0.000310882,0.00380976,0.0133024,-0.0106583,-0.00495768,-0.000401213
1413393213755760384,-1.1894,0.306435,1.42274,0.602886,-0.0147548,-0.79766,-0.00704324,0.00105817,-0.000635159,-0.00203369,-0.000314326,0.00390615,0.0136185,-0.0123494,-0.00536555,-0.000351003
1413393213805760512,-1.18999,0.30725,1.42534,0.602907,-0.0146358,-0.797648,-0.00689658,5.6177e-05,-0.000428867,-0.00473907,-0.000329775,0.00399577,0.0139088,-0.0140451,-0.00581925,-0.000388619
1413393213855760384,-1.19099,0.308464,1.42542,0.602931,-0.0146272,-0.797631,-0.00676317,-0.000973686,-0.00175358,-0.0027896,-0.000346788,0.00407109,0.0141826,-0.0143356,-0.00659309,-0.00028684
1413393213905760512,-1.19166,0.309131,1.42301,0.602922,-0.0146035,-0.797638,-0.0067507,-0.00017192,-0.00389189,-0.0029347,-0.000362348,0.00416371,0.0144815,-0.0158216,-0.00707924,0.00111181
1413393213955760384,-1.19196,0.309252,1.42148,0.602869,-0.01468,-0.797676,-0.00677054,0.000804956,-0.00418404,-0.000115317,-0.000370198,0.00424412,0.0147438,-0.01681,-0.00742066,0.00126662
1413393214005760512,-1.19162,0.308531,1.42195,0.60279,-0.0148482,-0.797733,-0.00680207,0.00102911,0.00971802,0.0033567,-0.000380437,0.00433595,0.0150266,-0.0179423,-0.00779166,0.00167427
1413393214055760384,-1.1918,0.308821,1.42163,0.602921,-0.0150146,-0.797628,-0.00706146,0.00257524,0.00649638,0.00120283,-0.000391649,0.00441258,0.0152997,-0.0183121,-0.00816245,0.00121339
1413393214105760512,-1.19164,0.308708,1.4222,0.602633,-0.0148285,-0.797851,-0.00694408,0.000270813,0.00213874,0.00240845,-0.000393223,0.00449796,0.0155891,-0.0187037,-0.00771184,0.000490824
1413393214155760384,-1.19089,0.307855,1.42055,0.602821,-0.0150024,-0.797705,-0.00702584,0.00259661,-0.000422068,0.0010154,-0.000400572,0.00457921,0.0158714,-0.0198523,-0.00818221,-0.000920179
1413393214205760512,-1.19062,0.307758,1.42125,0.60275,-0.0148681,-0.797763,-0.0067849,0.000432318,0.00190674,0.000643054,-0.000403851,0.00465764,0.0161412,-0.02019,-0.00833907,-0.00165491
1413393214255760384,-1.1905,0.307833,1.41974,0.60289,-0.0148615,-0.797654,-0.00711461,7.37723e-05,0.000550366,0.000368081,-0.000405091,0.00474329,0.0164192,-0.0213506,-0.00835957,-0.00240008
1413393214305760512,-1.19029,0.307779,1.41973,0.602905,-0.0150317,-0.797641,-0.00698079,0.000452289,-0.00321868,-0.00109071,-0.000402458,0.00481514,0.016679,-0.0204364,-0.00807857,-0.00211898
1413393214355760384,-1.19053,0.308193,1.41851,0.602931,-0.0148869,-0.797625,-0.00690521,0.000140415,0.00139531,0.00071551,-0.000416851,0.00488475,0.0169525,-0.0199497,-0.00848742,-0.0028091
1413393214405760512,-1.18931,0.306697,1.42232,0.603037,-0.0154174,-0.79753,-0.00738527,0.000187671,-0.00059941,-0.000100177,-0.000430136,0.00497176,0.0172215,-0.021743,-0.00851708,-0.00236077
1413393214455760384,-1.18954,0.307039,1.42298,0.603099,-0.0152469,-0.797489,-0.00709668,-0.000587301,0.000752759,0.000997121,-0.000431428,0.00504175,0.0174775,-0.0211655,-0.00828643,-0.0030022
1413393214505760512,-1.18824,0.305871,1.4211,0.603145,-0.0157735,-0.79744,-0.00760925,-0.00120305,0.000162241,0.00270437,-0.000438545,0.00512154,0.0177322,-0.0214525,-0.00861098,-0.00434704
1413393214555760384,-1.18607,0.303831,1.41225,0.603304,-0.0164197,-0.797303,-0.00793425,-0.000931844,-0.00124474,0.00112029,-0.000456686,0.00519273,0.0179873,-0.0217998,-0.00906788,-0.00738836
1413393214605760512,-1.18404,0.302238,1.38506,0.603448,-0.0168675,-0.797179,-0.00846396,-0.00231599,0.000909397,0.000683166,-0.000470241,0.00526512,0.0182555,-0.022238,-0.0090075,-0.0114828
1413393214655760384,-1.18397,0.302347,1.37962,0.603508,-0.0169528,-0.797133,-0.00843537,-3.54753e-06,-0.00189468,0.00158041,-0.000486255,0.00534259,0.0185321,-0.0236799,-0.00989563,-0.00997737
1413393214705760512,-1.18408,0.302332,1.37928,0.603529,-0.0170793,-0.797113,-0.00851809,-0.0013708,-0.000327631,-0.0011316,-0.000487106,0.00540727,0.0187479,-0.0233469,-0.00949663,-0.0110026
1413393214755760384,-1.18462,0.303015,1.3796,0.603526,-0.0171504,-0.797112,-0.00864328,0.000183922,-0.00141532,-0.000196334,-0.000492002,0.00548554,0.0190013,-0.0240574,-0.00987493,-0.0101539
1413393214805760512,-1.18494,0.303064,1.37919,0.603541,-0.0171488,-0.797101,-0.00858433,0.000918697,-0.000250953,-0.0002372,-0.000501916,0.00555418,0.0192236,-0.0238971,-0.00914824,-0.0103909
1413393214855760384,-1.18465,0.302929,1.37633,0.60353,-0.0172959,-0.797105,-0.00879896,0.00117727,0.000913109,-0.000238054,-0.00050759,0.0056153,0.0194619,-0.0228858,-0.00874395,-0.0101481
1413393214905760512,-1.1844,0.30276,1.37613,0.603504,-0.0174235,-0.79712,-0.00891322,0.00146957,-0.000213621,-0.000224196,-0.000524767,0.00569495,0.0197211,-0.0233357,-0.00929782,-0.010444
1413393214955760384,-1.18412,0.302565,1.37749,0.60348,-0.0177,-0.797131,-0.00897457,0.00114911,0.000925339,0.00111972,-0.000542303,0.00575935,0.0199585,-0.0232534,-0.0101231,-0.00949964
1413393215005760512,-1.18291,0.3017,1.37475,0.603438,-0.0179862,-0.797154,-0.00924217,0.00111486,0.00181541,0.00197039,-0.000524681,0.00582635,0.0202077,-0.0235691,-0.00804594,-0.0124646
1413393215055760384,-1.18068,0.299703,1.37137,0.603256,-0.01878,-0.797263,-0.0101067,-0.00050235,-0.00193533,0.00306481,-0.000521949,0.00589996,0.0204529,-0.0247427,-0.00709265,-0.0150778
1413393215105760512,-1.17898,0.298034,1.36796,0.603164,-0.0191826,-0.797321,-0.010232,-0.00113963,-0.00746985,-0.00269322,-0.000510384,0.00597018,0.0206934,-0.0247849,-0.00720231,-0.0169464
1413393215155760384,-1.17691,0.295867,1.36489,0.603323,-0.0198251,-0.797178,-0.010795,-0.000588831,-0.00213124,-0.00105841,-0.000504874,0.00601712,0.0209113,-0.0232765,-0.00717766,-0.0174426
1413393215205760512,-1.17495,0.293853,1.36454,0.603206,-0.0203808,-0.797243,-0.0114215,-0.00196129,-0.00336577,-0.00301454,-0.000510887,0.00609505,0.021138,-0.0222942,-0.00853192,-0.0144727
1413393215255760384,-1.17335,0.292186,1.35845,0.603218,-0.0210614,-0.797211,-0.0117683,-0.00235692,-0.00329198,-0.00396007,-0.00050084,0.00613663,0.0213443,-0.0214553,-0.00656097,-0.0171362
1413393215305760512,-1.17144,0.290378,1.35599,0.60318,-0.0218266,-0.79721,-0.012433,-0.00417574,-0.00261191,-0.00369517,-0.000507753,0.00620531,0.0215961,-0.0245482,-0.0084738,-0.0151302
1413393215355760384,-1.1701,0.288281,1.35493,0.603201,-0.0224041,-0.797169,-0.0129846,-0.00325787,-0.00450432,-0.00392006,-0.000504359,0.00629208,0.0218705,-0.0288603,-0.0101412,-0.0148343
1413393215405760512,-1.16941,0.287139,1.35451,0.603056,-0.0226594,-0.797268,-0.0132093,-0.00418771,-0.00214097,-0.00216135,-0.000498687,0.00635176,0.0221018,-0.0307202,-0.0109982,-0.0163211
1413393215455760384,-1.16938,0.286441,1.35459,0.602896,-0.0227043,-0.797385,-0.0133672,-0.00687786,-0.00171356,0.000153109,-0.000510003,0.00643537,0.0223206,-0.0317017,-0.0126825,-0.017065
1413393215505760512,-1.16889,0.285188,1.35314,0.602735,-0.0230041,-0.797496,-0.0134925,-0.00486367,-0.00246782,-0.0013977,-0.0005161,0.00650863,0.0225207,-0.0333821,-0.0115263,-0.0182964
1413393215555760384,-1.16877,0.284269,1.35708,0.602629,-0.0230983,-0.79757,-0.0137207,-0.00809649,-0.00328246,0.00100649,-0.000513965,0.00658192,0.0227503,-0.0337818,-0.0128981,-0.0170489
1413393215605760512,-1.16881,0.283353,1.36401,0.602653,-0.0235299,-0.797532,-0.0141082,-0.00941323,-0.00486051,0.00381463,-0.000510758,0.00666125,0.0230207,-0.0354826,-0.0143986,-0.0161144
1413393215655760384,-1.16895,0.282661,1.3637,0.602446,-0.0240069,-0.797674,-0.0141038,-0.00790795,-0.00156841,0.0041827,-0.0005305,0.00672052,0.023178,-0.0345296,-0.0142224,-0.0176837
1413393215705760512,-1.16807,0.281029,1.35752,0.601928,-0.0244539,-0.798047,-0.0143669,-0.00459265,-0.00498713,-0.00297829,-0.000547301,0.00679527,0.0234238,-0.0374429,-0.0177291,-0.0140663
1413393215755760384,-1.16679,0.279118,1.35687,0.601413,-0.0247932,-0.798414,-0.0149536,-0.001629,-0.00171607,-0.00440808,-0.000549792,0.00683797,0.0235973,-0.0359177,-0.0167827,-0.0159328
1413393215805760512,-1.16614,0.278293,1.3569,0.600939,-0.0248748,-0.798764,-0.0152013,0.00222907,-0.00340755,0.0106473,-0.000569595,0.00687907,0.0237813,-0.0343919,-0.0156152,-0.0174759
1413393215855760384,-1.16563,0.277534,1.35878,0.600658,-0.0249212,-0.798972,-0.0152749,-0.000725096,0.000215783,0.00851258,-0.00059144,0.0069577,0.0240048,-0.0364907,-0.0161377,-0.017304
1413393215905760512,-1.16526,0.277112,1.36318,0.600527,-0.0250525,-0.799066,-0.0153058,-0.00117009,-0.00038461,0.00874208,-0.000548745,0.00700198,0.0241988,-0.0342628,-0.00990481,-0.020159
1413393215955760384,-1.16413,0.275847,1.35086,0.600502,-0.0256051,-0.79907,-0.0151351,0.00274742,0.00204913,0.00681715,-0.000564374,0.00704881,0.0244296,-0.036191,-0.0123568,-0.0191524
1413393216005760512,-1.16276,0.274043,1.34975,0.600582,-0.0260186,-0.798977,-0.0161538,0.00819003,0.00128813,0.00756424,-0.000555255,0.00713342,0.0246605,-0.0398205,-0.0136509,-0.0178437
1413393216055760384,-1.16189,0.273145,1.34881,0.600601,-0.0258257,-0.798954,-0.0168468,0.000708931,0.00340903,0.00353635,-0.000529127,0.00715731,0.0248519,-0.0429366,-0.00868168,-0.0192016
1413393216105760512,-1.16144,0.272626,1.34887,0.600578,-0.0264371,-0.79895,-0.0169048,-0.000464437,0.00312722,-0.00669463,-0.000539791,0.00723917,0.0250414,-0.0411019,-0.0103833,-0.0207326
1413393216155760384,-1.16198,0.272802,1.35468,0.600986,-0.026211,-0.798645,-0.0171796,-0.00219785,0.00119503,-0.0032931,-0.000533432,0.00729993,0.0252365,-0.0417008,-0.0101583,-0.0182605
1413393216205760512,-1.16157,0.271935,1.35415,0.600812,-0.0265111,-0.798764,-0.0172983,-0.00432472,0.00403026,-0.00594709,-0.000553358,0.00736439,0.0254725,-0.0422374,-0.0123974,-0.0163235
1413393216255760384,-1.16212,0.272164,1.35714,0.599826,-0.0265584,-0.799507,-0.0171214,-0.012114,0.00358673,-6.36849e-05,-0.000554227,0.00741022,0.0256429,-0.0412709,-0.0127246,-0.0149509
1413393216305760512,-1.16263,0.272076,1.35311,0.598777,-0.0267331,-0.800288,-0.0170877,-0.009679,-0.00441516,-0.0017647,-0.000569365,0.00748893,0.0258857,-0.0447099,-0.0155913,-0.00909281
1413393216355760384,-1.16258,0.271624,1.35368,0.598362,-0.0272669,-0.800581,-0.0170165,-0.00122462,0.00123737,-0.00454037,-0.000609816,0.00754451,0.0260426,-0.0471914,-0.0167866,-0.00842411
1413393216405760512,-1.16258,0.271371,1.3542,0.597884,-0.0272289,-0.800942,-0.0169223,-0.00205428,-0.010809,-0.00797934,-0.000623556,0.00763827,0.0262099,-0.0475613,-0.0201137,-0.00789893
1413393216455760384,-1.16167,0.26964,1.36004,0.597982,-0.0272909,-0.800852,-0.0175817,-0.0062665,-0.00468161,0.010778,-0.000643866,0.00763006,0.0264023,-0.0458696,-0.0177682,-0.00609667
1413393216505760512,-1.16079,0.268769,1.35775,0.596183,-0.0279907,-0.802154,-0.0181841,0.00216618,0.00620587,0.012267,-0.000632794,0.00769641,0.0266252,-0.0468382,-0.0152643,-0.00106501
1413393216555760384,-1.15443,0.260398,1.33066,0.595516,-0.0312652,-0.80246,-0.0210301,0.000948385,0.0105134,-0.0193375,-0.000646294,0.00778238,0.0267622,-0.045611,-0.0159653,-0.00253466
1413393216605760512,-1.15132,0.257023,1.32745,0.595065,-0.0340878,-0.802658,-0.0218347,0.00126282,0.0199637,-0.0120622,-0.000639993,0.00781944,0.0269882,-0.0466401,-0.0156097,-0.0024275
1413393216655760384,-1.1487,0.253131,1.32876,0.595546,-0.0366776,-0.802098,-0.024874,4.88574e-05,0.00700316,0.023411,-0.000658921,0.00787925,0.027144,-0.0474677,-0.0214633,0.00523997
1413393216705760512,-1.14685,0.250929,1.33159,0.596008,-0.03776,-0.801587,-0.0284259,0.0188182,0.0182543,0.0348639,-0.000655107,0.00796815,0.027362,-0.0495662,-0.01718,0.00349059
1413393216755760384,-1.14436,0.250203,1.31101,0.595888,-0.0381116,-0.801508,-0.0324079,0.0121066,0.0161985,0.04726,-0.000673584,0.00800729,0.0275209,-0.0475832,-0.0240773,0.00903094
1413393216805760512,-1.14536,0.251737,1.34669,0.596097,-0.0377872,-0.801251,-0.0351753,0.0178199,0.00541238,0.0865664,-0.000675392,0.00802706,0.0276863,-0.0449609,-0.0258257,0.0126207
1413393216855760384,-1.14553,0.251002,1.41385,0.596465,-0.0381327,-0.80083,-0.0380419,0.0277388,0.00640708,0.0926956,-0.000744882,0.00811683,0.027875,-0.0444822,-0.0342916,0.0208831
1413393216905760512,-1.14171,0.248337,1.43829,0.597963,-0.0391093,-0.799521,-0.0409477,0.0386099,-0.00719992,0.128844,-0.000715437,0.00813719,0.0280795,-0.0377181,-0.0295562,0.0253953
1413393216955760384,-1.13394,0.245723,1.34496,0.597483,-0.0392991,-0.799632,-0.0453796,0.0479491,-0.00929818,0.14406,-0.000677668,0.00818092,0.0282715,-0.0338865,-0.0266698,0.0285265
1413393217005760512,-1.12813,0.243611,1.31182,0.596582,-0.0402957,-0.800091,-0.0481769,0.0622229,-0.0204015,0.161654,-0.000665251,0.00823758,0.0284264,-0.0327827,-0.0227257,0.02653
1413393217055760384,-1.12114,0.236558,1.33422,0.594441,-0.0420948,-0.801447,-0.0504973,0.0682505,-0.045407,0.226912,-0.000661303,0.00832089,0.0286213,-0.0347019,-0.0286743,0.0255805
1413393217105760512,-1.11556,0.23131,1.34957,0.593414,-0.0438403,-0.802027,-0.0518694,0.0808093,-0.0530201,0.274437,-0.000653058,0.00836072,0.0288274,-0.0346759,-0.0287695,0.0258529
1413393217155760384,-1.1065,0.220984,1.36839,0.59209,-0.0465851,-0.802758,-0.0532781,0.0845998,-0.0764378,0.276884,-0.00064782,0.00838745,0.0290228,-0.0363555,-0.0304878,0.0235529
1413393217205760512,-1.09979,0.212865,1.38554,0.591368,-0.0483433,-0.803112,-0.0543988,0.0937149,-0.0921207,0.262131,-0.00060615,0.00847233,0.029198,-0.0433823,-0.0316317,0.0164286
1413393217255760384,-1.092,0.203242,1.40083,0.59165,-0.0491896,-0.802692,-0.0567185,0.0945588,-0.101966,0.242325,-0.000599956,0.00844594,0.0293166,-0.0427403,-0.0321649,0.0134259
1413393217305760512,-1.08422,0.192967,1.4235,0.591071,-0.0502478,-0.802898,-0.0588712,0.10207,-0.119644,0.203304,-0.000581977,0.00853786,0.029552,-0.0468122,-0.0324211,0.00826201
1413393217355760384,-1.07604,0.183103,1.4269,0.590036,-0.0509403,-0.803569,-0.0594992,0.108494,-0.139301,0.168535,-0.000575582,0.00856878,0.0296786,-0.0478563,-0.0380695,0.0140991
1413393217405760512,-1.0686,0.171618,1.46662,0.588669,-0.0517969,-0.804402,-0.0610267,0.123828,-0.146778,0.155361,-0.000568403,0.00861995,0.0298921,-0.0478657,-0.0432045,0.0206351
1413393217455760384,-1.06204,0.160862,1.50775,0.587541,-0.052654,-0.805134,-0.0615138,0.130295,-0.171748,0.138478,-0.000585823,0.0087458,0.0300716,-0.0513443,-0.0459605,0.0250493
1413393217505760512,-1.0557,0.148967,1.52972,0.586754,-0.0527336,-0.805621,-0.0625702,0.128424,-0.195154,0.12576,-0.0005844,0.00878774,0.0302488,-0.0492054,-0.0580314,0.0379986
1413393217555760384,-1.04673,0.136351,1.51897,0.586507,-0.0536073,-0.80564,-0.0638797,0.148967,-0.19902,0.102942,-0.000598555,0.00883392,0.0303881,-0.0447718,-0.0600544,0.0415505
1413393217605760512,-1.0373,0.122078,1.53643,0.586397,-0.0535664,-0.805629,-0.0650524,0.145807,-0.232499,0.0844503,-0.000565976,0.008906,0.0305682,-0.0454788,-0.0594405,0.0439522
1413393217655760384,-1.02977,0.108945,1.5695,0.586196,-0.0538989,-0.805741,-0.0652078,0.155679,-0.238937,0.0927051,-0.000563638,0.0089597,0.0306904,-0.0420344,-0.0612761,0.0482458
1413393217705760512,-1.01941,0.0924038,1.5676,0.586366,-0.0548037,-0.805478,-0.066152,0.157077,-0.258554,0.136209,-0.000554434,0.00903048,0.0308278,-0.0402527,-0.0614875,0.0415122
1413393217755760384,-1.00949,0.0762429,1.55373,0.586751,-0.0548744,-0.805182,-0.0662924,0.160176,-0.289088,0.181512,-0.000500651,0.00907256,0.0309447,-0.0372645,-0.0568008,0.031945
1413393217805760512,-1.0006,0.0599056,1.5373,0.586603,-0.0555436,-0.805234,-0.0664135,0.166565,-0.295773,0.214112,-0.000481234,0.00912935,0.0311184,-0.0367548,-0.0631371,0.0322514
1413393217855760384,-0.991702,0.0426223,1.54943,0.586732,-0.0566528,-0.805066,-0.066373,0.173243,-0.310779,0.237694,-0.00051388,0.00915857,0.0313224,-0.0371086,-0.0679907,0.0306313
1413393217905760512,-0.982132,0.0236824,1.54942,0.586913,-0.0571209,-0.804903,-0.0663396,0.168135,-0.338893,0.274434,-0.000477494,0.00921311,0.0314984,-0.0385535,-0.0692839,0.0275687
1413393217955760384,-0.97332,0.00565728,1.55894,0.5876,-0.0575939,-0.804345,-0.0666201,0.175636,-0.343446,0.292818,-0.00042415,0.009293,0.0317116,-0.0431098,-0.0706644,0.0264168
1413393218005760512,-0.963886,-0.0141426,1.5677,0.587363,-0.0589453,-0.804485,-0.0658366,0.177489,-0.365345,0.267876,-0.000488164,0.00932007,0.03186,-0.0402773,-0.0759362,0.0298071
1413393218055760384,-0.955184,-0.0333076,1.58957,0.588035,-0.0609411,-0.804074,-0.0629778,0.178113,-0.378528,0.214323,-0.000408022,0.00932257,0.0319776,-0.0369909,-0.0702805,0.0288237
1413393218105760512,-0.946208,-0.0523808,1.60548,0.587851,-0.0638981,-0.804212,-0.0599293,0.18316,-0.370733,0.185959,-0.000420222,0.00937255,0.0321443,-0.0386327,-0.0729365,0.0272879
1413393218155760384,-0.936703,-0.0722324,1.60753,0.588179,-0.067875,-0.804009,-0.0548498,0.182123,-0.388831,0.13509,-0.000454582,0.00941512,0.0322858,-0.0397572,-0.0758847,0.0260204
1413393218205760512,-0.927823,-0.0911703,1.61619,0.588844,-0.0717565,-0.80358,-0.0487174,0.192974,-0.384405,0.0832442,-0.000419344,0.00945841,0.0324522,-0.0412119,-0.0797307,0.0291091
1413393218255760384,-0.917769,-0.110053,1.62175,0.588442,-0.0764637,-0.803772,-0.0429087,0.215333,-0.353496,0.0352354,-0.000431588,0.00951169,0.0325966,-0.0422574,-0.0807336,0.0265463
1413393218305760512,-0.907429,-0.127862,1.61471,0.587355,-0.080057,-0.804444,-0.0384018,0.208801,-0.354097,-0.000401893,-0.000451718,0.00956483,0.0327761,-0.0441942,-0.0851588,0.031691
1413393218355760384,-0.896347,-0.145447,1.6096,0.587096,-0.079912,-0.804658,-0.0381984,0.224033,-0.327107,-0.0398838,-0.000437879,0.00964281,0.0328648,-0.0430294,-0.0892951,0.0296232
1413393218405760512,-0.884884,-0.161257,1.60208,0.587398,-0.0776499,-0.804412,-0.0430705,0.238198,-0.290708,-0.0647272,-0.000430203,0.00967496,0.0329909,-0.0403715,-0.0923098,0.0295354
1413393218455760384,-0.872984,-0.175988,1.59699,0.587215,-0.0743967,-0.804553,-0.0483569,0.241237,-0.296904,-0.0938178,-0.000466184,0.00968593,0.0331206,-0.0364731,-0.0950103,0.032633
1413393218505760512,-0.860431,-0.190703,1.59363,0.587599,-0.0710509,-0.804242,-0.0536075,0.252542,-0.281279,-0.0869039,-0.000419415,0.0096729,0.0332474,-0.034738,-0.09707,0.0351064
1413393218555760384,-0.84743,-0.204988,1.59038,0.587633,-0.0682542,-0.804062,-0.0592691,0.264885,-0.26506,-0.0839019,-0.000453212,0.0096812,0.0333388,-0.0328484,-0.100856,0.0314766
1413393218605760512,-0.834156,-0.219352,1.58473,0.58845,-0.0656331,-0.803414,-0.0628081,0.263168,-0.294296,-0.0756421,-0.000467773,0.00969561,0.0335151,-0.0364005,-0.102897,0.025663
1413393218655760384,-0.820403,-0.234618,1.58148,0.588968,-0.063833,-0.802985,-0.065248,0.276123,-0.288625,-0.0747505,-0.000406947,0.0097263,0.0336559,-0.0394052,-0.0979569,0.0173228
1413393218705760512,-0.806361,-0.249574,1.57619,0.58906,-0.0644566,-0.802833,-0.0656807,0.285429,-0.288007,-0.0613712,-0.000449701,0.00976555,0.0337518,-0.041794,-0.0988109,0.0229603
1413393218755760384,-0.792063,-0.265014,1.57214,0.587489,-0.0635233,-0.803996,-0.0664221,0.284962,-0.318164,-0.0581399,-0.00045938,0.00978819,0.0339291,-0.0440554,-0.0997366,0.0258422
1413393218805760512,-0.777426,-0.2807,1.5718,0.583414,-0.0646842,-0.807,-0.0647637,0.298555,-0.308796,-0.0553813,-0.000463406,0.00985071,0.0340621,-0.0474912,-0.0996333,0.0274199
1413393218855760384,-0.762713,-0.296231,1.57037,0.577037,-0.0687915,-0.811557,-0.0605937,0.295119,-0.310461,-0.0470443,-0.000464095,0.00988828,0.0342182,-0.0499183,-0.0987064,0.0286461
1413393218905760512,-0.748291,-0.312558,1.57239,0.570548,-0.071699,-0.816181,-0.0564226,0.278104,-0.323812,-0.0438284,-0.000463117,0.00993316,0.0343518,-0.0526696,-0.0976696,0.0289024
1413393218955760384,-0.734782,-0.328696,1.57963,0.564985,-0.074166,-0.820013,-0.0535757,0.263213,-0.300234,-0.0165191,-0.000451437,0.0100025,0.0344675,-0.0544343,-0.0961716,0.0232418
1413393219005760512,-0.722269,-0.344037,1.5772,0.561425,-0.0764369,-0.822356,-0.0518725,0.235889,-0.287391,0.00640572,-0.000440907,0.0100469,0.0346162,-0.0543064,-0.0960302,0.0214659
1413393219055760384,-0.711151,-0.359094,1.56673,0.559686,-0.0775096,-0.823558,-0.0499684,0.201833,-0.284517,0.0290879,-0.000459572,0.0101156,0.0347658,-0.0527314,-0.0970961,0.0176037
1413393219105760512,-0.701538,-0.373488,1.56517,0.560015,-0.0772784,-0.823349,-0.0500845,0.178026,-0.261583,0.0598707,-0.000456928,0.010146,0.034887,-0.0505977,-0.0975019,0.0140653
1413393219155760384,-0.693367,-0.386709,1.5708,0.561197,-0.0776642,-0.822554,-0.0493222,0.150961,-0.247524,0.0682395,-0.000460859,0.0101698,0.0350183,-0.0458415,-0.0944415,0.0124649
1413393219205760512,-0.686265,-0.399705,1.57413,0.56211,-0.0772464,-0.821984,-0.0490766,0.125376,-0.242303,0.0849359,-0.000426605,0.0101897,0.0351333,-0.0419658,-0.087805,0.0129586
1413393219255760384,-0.680314,-0.411633,1.58125,0.563717,-0.0767112,-0.820955,-0.048691,0.105963,-0.226062,0.108009,-0.000397207,0.01019,0.0352798,-0.0378667,-0.0856965,0.0138207
1413393219305760512,-0.675846,-0.422876,1.59186,0.564866,-0.0758626,-0.820257,-0.0484803,0.0791604,-0.203386,0.114214,-0.000423044,0.0102399,0.0354066,-0.0395141,-0.0879424,0.0177928
1413393219355760384,-0.672283,-0.433728,1.58941,0.565243,-0.0757163,-0.82004,-0.0479708,0.0456086,-0.195031,0.120935,-0.000433241,0.0102603,0.0355186,-0.041466,-0.0878853,0.016709
1413393219405760512,-0.670516,-0.443979,1.59575,0.565958,-0.0762217,-0.819587,-0.0464641,0.0230312,-0.177331,0.114093,-0.000437425,0.0102773,0.0356461,-0.0442893,-0.0891105,0.0168537
1413393219455760384,-0.669815,-0.451985,1.60114,0.56711,-0.0758366,-0.81882,-0.046581,-0.0103319,-0.15416,0.0678777,-0.000437351,0.0103441,0.0357892,-0.0500429,-0.0879643,0.0145388
1413393219505760512,-0.672902,-0.386139,1.74528,0.567305,-0.0626279,-0.820353,-0.0355613,-0.0227483,-0.146532,0.0275063,-0.000794092,0.0104573,0.0359047,-0.0405238,-0.0545091,0.037791
1413393219555760384,-0.676213,-0.392014,1.75381,0.568952,-0.0623358,-0.81924,-0.0354266,-0.0462917,-0.130964,-0.00569182,-0.000820815,0.0105017,0.0360482,-0.0425705,-0.0565739,0.0401838
1413393219605760512,-0.679899,-0.397945,1.76073,0.570537,-0.0620637,-0.818134,-0.0359415,-0.0543181,-0.11767,-0.00888213,-0.000819013,0.0105507,0.0361508,-0.045159,-0.0559906,0.0355605
1413393219655760384,-0.68279,-0.405922,1.74063,0.57276,-0.062086,-0.81657,-0.0361344,-0.0664845,-0.10965,0.0240039,-0.000803161,0.0105819,0.0362556,-0.0448913,-0.0548243,0.0275039
1413393219705760512,-0.68546,-0.415168,1.77431,0.57557,-0.0622174,-0.814502,-0.0378857,-0.079948,-0.0928963,0.0833041,-0.00081691,0.0106167,0.0364014,-0.0478458,-0.0576021,0.0227464
1413393219755760384,-0.682815,-0.428071,1.72575,0.578537,-0.0619684,-0.812311,-0.0400805,-0.102304,-0.0816338,0.154609,-0.000809316,0.0106823,0.0364904,-0.0493518,-0.059417,0.0252442
1413393219805760512,-0.697022,-0.430646,1.798,0.581293,-0.0608663,-0.810241,-0.0436304,-0.0843686,-0.0745923,0.206926,-0.000775187,0.0106984,0.0366029,-0.0487509,-0.0661891,0.0188982
1413393219855760384,-0.698772,-0.436062,1.79971,0.582191,-0.060331,-0.809587,-0.0445411,-0.0793552,-0.0676136,0.315245,-0.000819695,0.010721,0.0367339,-0.0456407,-0.0654883,0.0292499
1413393219905760512,-0.704046,-0.393402,1.71975,0.582351,-0.0487458,-0.810604,-0.037591,-0.0802383,-0.0687884,0.336385,-0.000975999,0.0107856,0.0368343,-0.0277209,-0.0572425,0.0575628
1413393219955760384,-0.711119,-0.438329,1.86743,0.584588,-0.0572201,-0.807926,-0.0473246,-0.0847832,-0.0629633,0.336836,-0.000814147,0.0108112,0.0369869,-0.0444351,-0.0671545,0.0255661
1413393220005760512,-0.715423,-0.435764,1.83677,0.585642,-0.0553812,-0.807324,-0.0467369,-0.076959,-0.0656915,0.296339,-0.000849943,0.0108762,0.037129,-0.0434945,-0.064067,0.0282346
1413393220055760384,-0.721657,-0.411955,1.81843,0.586319,-0.0495178,-0.807429,-0.042862,-0.0555647,-0.0713262,0.242023,-0.000935147,0.0108853,0.0371696,-0.0284785,-0.0529721,0.0525969
1413393220105760512,-0.723526,-0.432528,1.8417,0.587373,-0.053126,-0.806237,-0.0463984,-0.0499753,-0.0682096,0.217697,-0.000875033,0.0108931,0.0373149,-0.0340067,-0.062852,0.0362491
1413393220155760384,-0.72849,-0.440404,1.87561,0.587899,-0.053738,-0.805694,-0.0484182,-0.0423766,-0.0776176,0.198181,-0.000861452,0.0108883,0.0374478,-0.0345775,-0.0626073,0.0389088
1413393220205760512,-0.732001,-0.445789,1.8962,0.588519,-0.0535957,-0.805179,-0.0496046,-0.0393926,-0.081353,0.220874,-0.000825289,0.0109056,0.037512,-0.0357841,-0.0634543,0.0351597
1413393220255760384,-0.733254,-0.454695,1.89449,0.589337,-0.0554351,-0.804388,-0.050686,-0.0329604,-0.0754925,0.220569,-0.000763644,0.0109189,0.0376261,-0.0403132,-0.0651053,0.0282501
1413393220305760512,-0.735343,-0.460569,1.91483,0.589793,-0.0546469,-0.804007,-0.0522678,-0.0231073,-0.0955747,0.22501,-0.000840058,0.010994,0.037772,-0.0494094,-0.0655808,0.0336089
1413393220355760384,-0.734729,-0.473232,1.90993,0.590892,-0.0565931,-0.802983,-0.0534989,-0.0172463,-0.0990636,0.229064,-0.000734952,0.010967,0.0378499,-0.0565534,-0.0651836,0.019133
1413393220405760512,-0.736023,-0.479178,1.92868,0.591005,-0.0573524,-0.802827,-0.0537785,-0.00775171,-0.0972282,0.243611,-0.000732121,0.0110101,0.0379828,-0.0615814,-0.0654533,0.0226035
1413393220455760384,-0.73618,-0.485451,1.93787,0.590359,-0.0577388,-0.803253,-0.0541119,0.00433806,-0.119125,0.2381,-0.000798985,0.0110614,0.0381159,-0.0674627,-0.0683935,0.0242062
1413393220505760512,-0.736029,-0.49197,1.94954,0.58868,-0.0587161,-0.804454,-0.0535048,0.00921112,-0.122449,0.224714,-0.000759318,0.0111061,0.0382168,-0.0751891,-0.0690111,0.0256791
1413393220555760384,-0.735227,-0.498588,1.9582,0.587157,-0.0596127,-0.805508,-0.0533819,0.0236893,-0.119596,0.18586,-0.000764926,0.0111273,0.0383387,-0.0810348,-0.067057,0.0211107
1413393220605760512,-0.733957,-0.505662,1.96919,0.586416,-0.0602619,-0.80599,-0.0535261,0.0176756,-0.132956,0.128303,-0.000793889,0.0111872,0.0384378,-0.087256,-0.0664857,0.0179013
1413393220655760384,-0.733019,-0.512974,1.97355,0.587199,-0.0606214,-0.805394,-0.0535075,0.0187763,-0.136494,0.0736137,-0.00077796,0.0112176,0.0385251,-0.0917113,-0.0638755,0.0141731
1413393220705760512,-0.731826,-0.52013,1.97911,0.587793,-0.0617924,-0.804888,-0.0532748,0.0349013,-0.121471,0.0232381,-0.00078526,0.0112455,0.0386147,-0.0943314,-0.0628451,0.0164747
1413393220755760384,-0.730744,-0.527699,1.98885,0.587733,-0.0637881,-0.804937,-0.0507724,0.025032,-0.143288,-0.0255447,-0.000815631,0.0112937,0.0387184,-0.0992813,-0.0642786,0.00621542
1413393220805760512,-0.729354,-0.53379,1.99436,0.585907,-0.0665089,-0.806297,-0.0466383,0.0363436,-0.133717,-0.0168053,-0.000812988,0.0113622,0.0388564,-0.104186,-0.0609976,0.0046999
1413393220855760384,-0.727505,-0.540332,1.99581,0.584614,-0.0700283,-0.807141,-0.0429801,0.0451408,-0.103709,0.0359202,-0.000824078,0.0114321,0.0389387,-0.106566,-0.0616527,0.00327614
1413393220905760512,-0.725534,-0.545413,1.99746,0.583656,-0.0713878,-0.807844,-0.0404652,0.0486444,-0.123221,0.0905094,-0.000857105,0.0114085,0.039056,-0.098363,-0.0493721,0.0127254
1413393220955760384,-0.724413,-0.548978,2.00628,0.582469,-0.0724257,-0.808682,-0.0389642,0.0429067,-0.0921101,0.198114,-0.000837243,0.0114119,0.0390855,-0.0903612,-0.0427599,0.015658
1413393221005760512,-0.72261,-0.551474,2.01318,0.582803,-0.0730872,-0.808322,-0.0401842,0.0398838,-0.0505651,0.224937,-0.000876044,0.0114521,0.039233,-0.0895884,-0.0400398,0.0301633
1413393221055760384,-0.721697,-0.55343,2.02834,0.582053,-0.0735765,-0.808791,-0.0407186,0.0319156,-0.0582449,0.25474,-0.000869574,0.0114735,0.0392723,-0.0871542,-0.0370035,0.019198
1413393221105760512,-0.719584,-0.554708,2.02529,0.580944,-0.073893,-0.809561,-0.0406944,0.0243265,-0.0314238,0.2676,-0.000859315,0.0114754,0.0393837,-0.0884425,-0.0369537,0.0137816
1413393221155760384,-0.719935,-0.5586,2.05755,0.580214,-0.0747454,-0.809914,-0.0424945,0.0275691,-0.00737569,0.282956,-0.000891832,0.011558,0.0395095,-0.0957941,-0.0448632,0.0230378
1413393221205760512,-0.721168,-0.557708,2.09533,0.578757,-0.0748803,-0.810881,-0.043659,0.0115933,-0.0154089,0.287613,-0.000943681,0.0115706,0.039577,-0.094171,-0.0426474,0.0303144
1413393221255760384,-0.721315,-0.55833,2.12072,0.576986,-0.0741467,-0.812194,-0.0439486,0.0143459,0.00366892,0.283827,-0.000877057,0.0116222,0.039662,-0.0919349,-0.0312759,0.0285181
1413393221305760512,-0.72069,-0.536294,2.11931,0.574264,-0.070016,-0.814595,-0.041896,0.0138323,0.0235643,0.269096,-0.000963345,0.011659,0.0397859,-0.0778416,-0.000887839,0.0569927
1413393221355760384,-0.718918,-0.533257,2.09597,0.572454,-0.0696579,-0.815891,-0.0420411,-0.00422652,0.0140146,0.304462,-0.000944569,0.011685,0.0398976,-0.0774298,0.00715762,0.0547023
1413393221405760512,-0.719209,-0.530782,2.10683,0.570761,-0.0689017,-0.817096,-0.0428807,-0.0182965,0.0284924,0.30759,-0.000896252,0.0117903,0.0399966,-0.0811586,0.0148459,0.0531872
1413393221455760384,-0.720634,-0.525976,2.11991,0.569725,-0.0673991,-0.817845,-0.0447288,-0.0332658,0.0472471,0.287731,-0.000931186,0.0118586,0.040117,-0.0760931,0.0207355,0.0567504
1413393221505760512,-0.724771,-0.516359,2.19735,0.568455,-0.0651294,-0.818956,-0.0439101,-0.0512072,0.0400201,0.224662,-0.00100286,0.0119545,0.0403176,-0.0775279,0.0253227,0.0738148
1413393221555760384,-0.727236,-0.510405,2.18098,0.567152,-0.0623981,-0.819944,-0.0462464,-0.0647591,0.0462413,0.175765,-0.00094971,0.0119817,0.0404064,-0.0698604,0.0350682,0.0846329
1413393221605760512,-0.730703,-0.509735,2.19622,0.567117,-0.0615095,-0.819922,-0.0482119,-0.0940277,0.0451968,0.156902,-0.000980193,0.012004,0.0405235,-0.0647332,0.0372619,0.0835456
1413393221655760384,-0.737136,-0.507191,2.2109,0.567417,-0.0602988,-0.819751,-0.0491036,-0.116945,0.0247907,0.16095,-0.000937201,0.012036,0.0406151,-0.0580067,0.0412477,0.0840232
1413393221705760512,-0.743629,-0.505259,2.21905,0.570245,-0.0594733,-0.817799,-0.0498978,-0.126645,0.0277852,0.173006,-0.000925394,0.0121049,0.0407349,-0.0546068,0.0421456,0.0855481
1413393221755760384,-0.750241,-0.503877,2.22684,0.573758,-0.059301,-0.815379,-0.0494255,-0.136698,0.0177834,0.165823,-0.000948237,0.0121191,0.0408118,-0.048,0.0400634,0.0899463
1413393221805760512,-0.757474,-0.503487,2.23678,0.576856,-0.0581492,-0.813285,-0.0492293,-0.140664,-0.00268726,0.169904,-0.000954308,0.0121445,0.0409197,-0.0432033,0.0399671,0.0957555
1413393221855760384,-0.764555,-0.503292,2.24561,0.578742,-0.0574525,-0.811979,-0.0494648,-0.135813,0.0114814,0.160675,-0.000941808,0.0121709,0.0410651,-0.0417368,0.0369744,0.102061
1413393221905760512,-0.771819,-0.503256,2.25651,0.57986,-0.0574601,-0.811223,-0.0487624,-0.137712,-0.0105064,0.14805,-0.000961727,0.0122149,0.041127,-0.0375992,0.0364635,0.101489
1413393221955760384,-0.778687,-0.503623,2.26523,0.581494,-0.0568116,-0.810191,-0.0472146,-0.132712,-0.0139847,0.12468,-0.000961196,0.0122165,0.0412563,-0.0362217,0.0358539,0.101722
1413393222005760512,-0.785217,-0.504103,2.27072,0.581493,-0.0569635,-0.810201,-0.0468568,-0.123902,-0.000302689,0.0725196,-0.000950046,0.0122921,0.0413741,-0.0384976,0.0342629,0.103977
1413393222055760384,-0.791464,-0.504584,2.27224,0.582224,-0.0568344,-0.809733,-0.0460261,-0.120137,-0.0191903,0.0116131,-0.000989604,0.0123101,0.0414774,-0.0383367,0.0285394,0.109407
1413393222105760512,-0.797659,-0.505503,2.27316,0.582944,-0.056628,-0.809309,-0.044599,-0.124374,-0.0285294,-0.0505117,-0.000979548,0.0123491,0.0415598,-0.0376882,0.0307149,0.106649
1413393222155760384,-0.803944,-0.506288,2.27093,0.582904,-0.0558388,-0.809401,-0.0444434,-0.11631,-0.0140411,-0.104835,-0.000931483,0.0123796,0.0416389,-0.0351535,0.0423919,0.0979871
1413393222205760512,-0.809575,-0.507041,2.26301,0.582779,-0.0554225,-0.809534,-0.0441904,-0.107017,-0.0222165,-0.164758,-0.000934229,0.0123736,0.0417323,-0.0299584,0.0420023,0.100794
1413393222255760384,-0.814592,-0.508124,2.25341,0.58165,-0.0551101,-0.810424,-0.0431295,-0.0978448,-0.031642,-0.216693,-0.000925641,0.0124082,0.0418031,-0.0286577,0.0427222,0.0970297
1413393222305760512,-0.819288,-0.509062,2.2414,0.579296,-0.0541653,-0.812155,-0.0434489,-0.0917118,-0.0146244,-0.247952,-0.000933449,0.0124387,0.0419184,-0.0274949,0.0409203,0.0998185
1413393222355760384,-0.824007,-0.509797,2.22838,0.575059,-0.0545429,-0.815169,-0.0428065,-0.0963115,-0.0244645,-0.247108,-0.000925228,0.0124626,0.0420432,-0.0262871,0.0423931,0.100889
1413393222405760512,-0.828962,-0.510594,2.21827,0.571058,-0.0542089,-0.818052,-0.0417703,-0.104117,-0.0282178,-0.228329,-0.000878643,0.0124793,0.0420646,-0.0176789,0.0553132,0.0936068
1413393222455760384,-0.834767,-0.51168,2.21094,0.567643,-0.0530952,-0.820436,-0.0429869,-0.112747,-0.0180807,-0.204117,-0.000885876,0.0124699,0.04218,-0.0178341,0.0513103,0.0969897
1413393222505760512,-0.841021,-0.512881,2.20139,0.564959,-0.0534885,-0.822326,-0.0417204,-0.137586,-0.0310075,-0.176188,-0.000915542,0.0125738,0.0423407,-0.0302235,0.0400478,0.102162
1413393222555760384,-0.849232,-0.514937,2.20242,0.563895,-0.0544026,-0.823138,-0.038831,-0.145764,-0.0412328,-0.116077,-0.000978076,0.0124858,0.0422196,-0.012747,0.0250568,0.108341
1413393222605760512,-0.857985,-0.516105,2.19961,0.562813,-0.0542915,-0.823919,-0.0381062,-0.172842,-0.0307198,-0.0872744,-0.000994968,0.0126123,0.0424521,-0.0220545,0.0259949,0.110527
1413393222655760384,-0.867026,-0.517867,2.19687,0.561418,-0.0543241,-0.824908,-0.0372367,-0.201714,-0.034803,-0.0298445,-0.00102345,0.0126536,0.0425895,-0.02938,0.0228299,0.114023
1413393222705760512,-0.878057,-0.518974,2.19932,0.561624,-0.0531187,-0.82482,-0.0378085,-0.223409,-0.0347179,0.0180075,-0.000955161,0.0127259,0.0426278,-0.032295,0.0329457,0.104868
1413393222755760384,-0.889702,-0.519705,2.19575,0.560276,-0.0534726,-0.825776,-0.0364018,-0.245709,-0.0251206,0.0508364,-0.000994282,0.0127365,0.042725,-0.0353955,0.0341198,0.111756
1413393222805760512,-0.902206,-0.52031,2.19487,0.558662,-0.0534324,-0.826905,-0.0356507,-0.269954,-0.0206003,0.101535,-0.000978876,0.0128124,0.0428068,-0.0383422,0.0357093,0.112875
1413393222855760384,-0.916047,-0.521168,2.20159,0.556636,-0.0536201,-0.8283,-0.0346567,-0.285074,-0.0131946,0.132912,-0.00100106,0.0128757,0.0429113,-0.0407823,0.034458,0.106353
1413393222905760512,-0.930891,-0.521183,2.20914,0.555657,-0.0534261,-0.82904,-0.0329408,-0.308897,-0.00258528,0.175837,-0.000952922,0.0128922,0.0430127,-0.033223,0.0453109,0.0980598
1413393222955760384,-0.947017,-0.520883,2.21812,0.554046,-0.0525189,-0.830212,-0.0319871,-0.341332,0.00487814,0.22343,-0.000948923,0.0129157,0.0431082,-0.0315466,0.0491793,0.097439
1413393223005760512,-0.964647,-0.520344,2.23347,0.555207,-0.051535,-0.829503,-0.0318385,-0.358471,0.00879319,0.235113,-0.000915628,0.01291,0.0431989,-0.0280932,0.0549995,0.0964444
1413393223055760384,-0.98332,-0.519689,2.24538,0.557165,-0.0496156,-0.828319,-0.031509,-0.387133,0.00733148,0.254938,-0.000904188,0.0129359,0.0432655,-0.0232161,0.0565016,0.0879705
1413393223105760512,-1.00321,-0.518902,2.25813,0.559053,-0.0485322,-0.827136,-0.0308394,-0.410908,0.0150038,0.252378,-0.000860653,0.0129276,0.0433451,-0.0189841,0.0615812,0.0862483
1413393223155760384,-1.02418,-0.517899,2.26884,0.560493,-0.0478456,-0.826164,-0.031826,-0.437292,0.0131076,0.25036,-0.000854786,0.0129237,0.043426,-0.015187,0.0619509,0.0856942
1413393223205760512,-1.04617,-0.517371,2.28251,0.562278,-0.044884,-0.825057,-0.033317,-0.456606,0.00306687,0.253412,-0.000854407,0.0129345,0.0435034,-0.0225618,0.061847,0.0913112
1413393223255760384,-1.06915,-0.516823,2.29618,0.563295,-0.0438269,-0.824379,-0.034318,-0.473634,0.00751306,0.211344,-0.000886424,0.0129617,0.0435967,-0.02817,0.0576543,0.0913655
1413393223305760512,-1.09178,-0.515571,2.29208,0.565049,-0.0432366,-0.823213,-0.0342082,-0.49171,-0.00859821,0.173601,-0.000941948,0.0129811,0.043679,-0.0336185,0.0555137,0.093494
1413393223355760384,-1.11611,-0.515196,2.28762,0.566076,-0.0428124,-0.822506,-0.0347641,-0.509201,-0.012985,0.087386,-0.000953254,0.0129925,0.0437309,-0.0346647,0.0567038,0.0898016
1413393223405760512,-1.14142,-0.515819,2.28648,0.567833,-0.0424804,-0.821302,-0.0350059,-0.517205,-0.0154901,-0.0131112,-0.000944316,0.0130657,0.0438605,-0.0399086,0.0570473,0.0932442
1413393223455760384,-1.16687,-0.51599,2.27773,0.569897,-0.0417055,-0.819857,-0.0362404,-0.527203,-0.0163676,-0.127811,-0.000972884,0.0130491,0.0439132,-0.0405601,0.0581246,0.0969104
1413393223505760512,-1.19301,-0.516806,2.2663,0.572568,-0.0414684,-0.81797,-0.0370328,-0.532022,-0.0168779,-0.224243,-0.000964813,0.0131194,0.0439847,-0.051934,0.0586052,0.0984249
1413393223555760384,-1.21916,-0.517694,2.25031,0.575432,-0.041988,-0.815923,-0.0372214,-0.537196,-0.02292,-0.301355,-0.000947617,0.0131645,0.0440607,-0.0546825,0.0608895,0.0963993
1413393223605760512,-1.24569,-0.519017,2.23473,0.578088,-0.0421323,-0.813975,-0.0385351,-0.522388,-0.0227167,-0.37137,-0.000924858,0.0131445,0.0441341,-0.0535384,0.0590596,0.0954511
1413393223655760384,-1.27149,-0.520361,2.21864,0.580373,-0.0430277,-0.812237,-0.039834,-0.518286,-0.0282547,-0.403664,-0.000926415,0.0131177,0.0441408,-0.0486176,0.059957,0.0934469
1413393223705760512,-1.29644,-0.52172,2.19566,0.581396,-0.0441503,-0.811394,-0.0408593,-0.509522,-0.0362085,-0.376471,-0.000950319,0.0131577,0.044253,-0.0555447,0.0579904,0.0848182
1413393223755760384,-1.32128,-0.524193,2.17909,0.582307,-0.0453844,-0.810608,-0.0421212,-0.508741,-0.0477821,-0.303576,-0.000901144,0.0133674,0.0446487,-0.0848898,0.0811295,0.0621901
1413393223805760512,-1.34622,-0.527958,2.16891,0.583435,-0.0475487,-0.809629,-0.0429449,-0.500918,-0.0703486,-0.248378,-0.000814986,0.0132031,0.0445214,-0.0624966,0.0822797,0.0607399
1413393223855760384,-1.37137,-0.532377,2.16319,0.582208,-0.0493831,-0.810347,-0.0439785,-0.481373,-0.0847733,-0.15419,-0.000801029,0.0130474,0.0444414,-0.0399666,0.0756679,0.0705203
1413393223905760512,-1.39579,-0.537313,2.16112,0.582402,-0.0501518,-0.809991,-0.0469816,-0.50232,-0.0867625,-0.0903035,-0.000774735,0.0130454,0.0445525,-0.0434353,0.0774118,0.0635622
1413393223955760384,-1.42054,-0.541974,2.16719,0.582156,-0.0517274,-0.810004,-0.0480948,-0.504719,-0.107797,-0.0376641,-0.000631547,0.0132636,0.0449397,-0.0780489,0.111613,0.0380011
1413393224005760512,-1.44607,-0.547226,2.17938,0.582909,-0.0532127,-0.809326,-0.0487701,-0.508598,-0.12081,-0.00697286,-0.000541166,0.0133468,0.0450133,-0.0785749,0.124012,0.0361691
1413393224055760384,-1.47146,-0.554819,2.19572,0.582526,-0.0555368,-0.809451,-0.0486711,-0.514503,-0.132351,-0.0137463,-0.000538851,0.0133872,0.0450648,-0.0769514,0.112669,0.045658
1413393224105760512,-1.49661,-0.561505,2.18564,0.583573,-0.0576916,-0.808539,-0.0487739,-0.51487,-0.157679,-0.0563136,-0.000563304,0.0134118,0.0451246,-0.0698572,0.0998853,0.0535341
1413393224155760384,-1.5224,-0.569745,2.18809,0.584244,-0.0589967,-0.807912,-0.0495591,-0.514589,-0.170884,-0.08095,-0.000544803,0.0134959,0.0452111,-0.0728208,0.091158,0.0596513
1413393224205760512,-1.55131,-0.580626,2.23901,0.583713,-0.0574515,-0.808271,-0.0517324,-0.505859,-0.186537,-0.143192,-0.000558387,0.0135635,0.0453338,-0.0696906,0.0779212,0.0666455
1413393224255760384,-1.57436,-0.589445,2.1872,0.584592,-0.0581605,-0.807482,-0.0533124,-0.503752,-0.197121,-0.171278,-0.000589169,0.0136557,0.0454385,-0.0741823,0.0640423,0.0693057
1413393224305760512,-1.59968,-0.599205,2.17055,0.585858,-0.059466,-0.806439,-0.0537592,-0.493999,-0.209551,-0.230161,-0.000567717,0.0137097,0.0456416,-0.0741049,0.058865,0.0682833
1413393224355760384,-1.62441,-0.609495,2.15387,0.58583,-0.0582452,-0.806438,-0.0553908,-0.495116,-0.212452,-0.277119,-0.000574876,0.0137109,0.0456844,-0.0732611,0.0497375,0.0606112
1413393224405760512,-1.64826,-0.619526,2.12355,0.585245,-0.059686,-0.806636,-0.0571429,-0.48284,-0.209016,-0.319078,-0.000620556,0.0137578,0.0457737,-0.074818,0.0464733,0.0531681
1413393224455760384,-1.67156,-0.630299,2.10978,0.586093,-0.0632892,-0.805689,-0.0579236,-0.463157,-0.217222,-0.367349,-0.000587088,0.0137846,0.0458641,-0.0671141,0.0455558,0.0370672
1413393224505760512,-1.69424,-0.641065,2.09115,0.586263,-0.0682398,-0.805072,-0.0591507,-0.435597,-0.208246,-0.417043,-0.000591919,0.0137852,0.0459591,-0.0648257,0.0460076,0.0321754
1413393224555760384,-1.71595,-0.651416,2.07701,0.586111,-0.075722,-0.804511,-0.0591784,-0.4188,-0.205032,-0.450118,-0.000575445,0.0138925,0.0460617,-0.0729347,0.0498088,0.024068
1413393224605760512,-1.73713,-0.662047,2.06655,0.587012,-0.0831889,-0.803001,-0.0607168,-0.402461,-0.197865,-0.466765,-0.000525846,0.0139666,0.0462195,-0.0648813,0.0502846,0.0184959
1413393224655760384,-1.75721,-0.671629,2.04424,0.58673,-0.0914583,-0.802174,-0.0624527,-0.392143,-0.181891,-0.423501,-0.000500623,0.0139601,0.0462416,-0.0470103,0.0435686,0.0164473
1413393224705760512,-1.77205,-0.67886,1.95752,0.584512,-0.0994218,-0.802682,-0.0645193,-0.374401,-0.188527,-0.419071,-0.000528245,0.0140017,0.0463172,-0.0366378,0.0383218,0.0300696
1413393224755760384,-1.79014,-0.681613,2.02993,0.580389,-0.105903,-0.804865,-0.064233,-0.370991,-0.167812,-0.400134,-0.000716063,0.0141177,0.0464204,-0.0122192,0.0364439,0.0919155
1413393224805760512,-1.81095,-0.687384,2.09471,0.576584,-0.113016,-0.806375,-0.0673609,-0.334245,-0.14755,-0.380922,-0.000806187,0.0142083,0.0465336,0.00490853,0.0374954,0.139823
1413393224855760384,-1.82826,-0.693798,2.09451,0.574024,-0.120838,-0.806816,-0.070309,-0.330936,-0.153399,-0.332754,-0.000848762,0.0142584,0.0466088,0.0140678,0.0328533,0.147158
1413393224905760512,-1.84609,-0.699828,2.0952,0.572544,-0.126087,-0.80676,-0.073716,-0.335332,-0.136154,-0.276952,-0.000862997,0.0142996,0.0466945,0.0230712,0.0224323,0.163985
1413393224955760384,-1.8616,-0.706068,2.08525,0.57063,-0.131795,-0.806948,-0.076458,-0.303185,-0.114413,-0.216404,-0.000877646,0.0143097,0.0467789,0.0285442,0.0203398,0.161053
1413393225005760512,-1.87535,-0.710626,2.04155,0.568974,-0.134681,-0.807253,-0.080458,-0.305898,-0.124382,-0.146766,-0.000876973,0.0142578,0.0468311,0.0432478,0.0178747,0.170682
1413393225055760384,-1.8899,-0.716829,2.02445,0.56714,-0.136168,-0.807891,-0.084403,-0.299493,-0.107643,-0.133278,-0.000861954,0.0142907,0.0469497,0.0394566,0.0138924,0.178883
1413393225105760512,-1.90544,-0.722413,2.01494,0.566031,-0.138381,-0.807938,-0.0877279,-0.284762,-0.0803117,-0.0635283,-0.000920507,0.0142943,0.0470819,0.0443421,0.00380658,0.192996
1413393225155760384,-1.92025,-0.726208,2.01338,0.565542,-0.139813,-0.807758,-0.0902328,-0.273394,-0.093076,-0.0809099,-0.000900812,0.0143004,0.0471914,0.0452867,0.000732923,0.184258
1413393225205760512,-1.93343,-0.730343,2.00612,0.564986,-0.141618,-0.807833,-0.090232,-0.260942,-0.0772457,-0.069159,-0.000936184,0.0142605,0.047355,0.0589953,-0.0174295,0.185947
1413393225255760384,-1.94579,-0.733899,2.00307,0.564101,-0.14231,-0.808129,-0.0920143,-0.241811,-0.066429,-0.0610051,-0.000976609,0.014196,0.047318,0.0574228,-0.0176857,0.181141
1413393225305760512,-1.95777,-0.737212,1.99986,0.563185,-0.144242,-0.808326,-0.092876,-0.24051,-0.0703455,-0.087904,-0.00102731,0.0141598,0.0474006,0.059432,-0.0224128,0.178978
1413393225355760384,-1.96955,-0.739902,1.99709,0.56305,-0.1468,-0.807671,-0.0953565,-0.223689,-0.0472906,-0.0668116,-0.00106733,0.0141233,0.0475608,0.0604597,-0.0240782,0.177053
1413393225405760512,-1.98098,-0.742107,1.994,0.562346,-0.152859,-0.806923,-0.0963218,-0.22782,-0.0311158,-0.0469986,-0.00106739,0.0141232,0.0475608,0.0609231,-0.0254281,0.176685
1413393225455760384,-1.99281,-0.743192,1.99166,0.561285,-0.159726,-0.806106,-0.0981831,-0.237717,-0.0169716,-0.0358767,-0.00146027,0.014052,0.0475471,0.0610993,-0.025625,0.175653
1413393225505760512,-2.00418,-0.743118,1.99069,0.561228,-0.168679,-0.804027,-0.100553,-0.218829,0.0205304,-0.0279846,-0.00146026,0.014052,0.0475472,0.0613311,-0.0265073,0.175081
1413393225555760384,-2.01509,-0.741521,1.98914,0.559402,-0.178409,-0.802739,-0.10417,-0.209188,0.044459,-0.0237971,-0.00157468,0.013977,0.0475612,0.0611283,-0.0265915,0.174765
1413393225605760512,-2.02615,-0.738162,1.99063,0.558372,-0.189432,-0.800301,-0.108884,-0.224103,0.0802905,0.00102268,-0.00160354,0.0139602,0.0475661,0.0601953,-0.0258091,0.172154
1413393225655760384,-2.03737,-0.7327,1.99513,0.557536,-0.199966,-0.797378,-0.115571,-0.208939,0.116462,0.0130963,-0.00165275,0.0141488,0.0475894,0.0447908,-0.0226019,0.166542
1413393225705760512,-2.04857,-0.726187,2.00449,0.556527,-0.212523,-0.793762,-0.122691,-0.208293,0.140716,0.0480588,-0.00155554,0.014569,0.0478465,0.0181087,-0.0106398,0.159834
1413393225755760384,-2.05953,-0.718521,2.00911,0.555023,-0.222349,-0.790437,-0.13312,-0.21586,0.150699,0.0600736,-0.00153514,0.0147658,0.047933,0.00636006,-0.005945,0.156876
1413393225805760512,-2.06994,-0.709783,2.01331,0.553522,-0.23118,-0.786848,-0.145053,-0.194527,0.179975,0.0878073,-0.00157313,0.0149347,0.047828,0.00413628,-0.00453157,0.149759
1413393225855760384,-2.07923,-0.700907,2.01648,0.547678,-0.241822,-0.785229,-0.158071,-0.179259,0.180945,0.0289663,-0.00156351,0.014957,0.0479206,0.00444537,-0.00343634,0.14736
1413393225905760512,-2.08784,-0.692088,2.01367,0.54701,-0.248092,-0.781664,-0.168025,-0.174827,0.17896,-0.0646699,-0.00163536,0.0148804,0.0478546,0.00655534,-0.00520407,0.147309
1413393225955760384,-2.09669,-0.683371,2.0072,0.542797,-0.258583,-0.77841,-0.180513,-0.180057,0.185508,-0.171893,-0.00174811,0.0147059,0.0476946,0.00993373,-0.00766881,0.146649
1413393226005760512,-2.10591,-0.674046,1.99623,0.542162,-0.26742,-0.772993,-0.192431,-0.17791,0.181542,-0.246088,-0.00182408,0.0145849,0.0477303,0.0108415,-0.00953435,0.146681
1413393226055760384,-2.11438,-0.663897,1.98624,0.540126,-0.276192,-0.768392,-0.203854,-0.182587,0.17777,-0.26112,-0.00184524,0.0145946,0.0480067,0.00510694,-0.0106967,0.150255
1413393226105760512,-2.12056,-0.661387,2.03176,0.534071,-0.290972,-0.763834,-0.216011,-0.185341,0.156854,-0.25624,-0.00123452,0.0148591,0.0480954,0.00737679,-0.0138371,0.15198
1413393226155760384,-2.13348,-0.650941,2.04745,0.533691,-0.300944,-0.75777,-0.224482,-0.193453,0.161246,-0.220647,-0.00107234,0.0147378,0.0482968,0.00100518,-0.0195456,0.156128
1413393226205760512,-2.14243,-0.643336,2.04371,0.531904,-0.312077,-0.752333,-0.23169,-0.1984,0.141625,-0.15785,-0.00087689,0.0147382,0.0484251,-0.00562335,-0.0234452,0.156943
1413393226255760384,-2.14904,-0.636568,2.02419,0.529502,-0.325946,-0.746058,-0.238294,-0.218667,0.150385,-0.0890785,-0.000356472,0.0146802,0.0483864,-0.0119424,-0.0308736,0.158573
1413393226305760512,-2.16578,-0.625845,2.01131,0.531047,-0.321544,-0.749117,-0.231132,-0.20302,0.140646,-0.0687292,-0.00170816,0.0148928,0.0488291,-0.0173928,-0.0203327,0.169689
1413393226355760384,-2.16669,-0.63041,2.02329,0.524885,-0.344757,-0.739746,-0.24169,-0.215967,0.140276,-0.0297865,-0.000184067,0.0148359,0.048332,-0.0223766,-0.0260635,0.161681
1413393226405760512,-2.19046,-0.60673,2.0314,0.527945,-0.331512,-0.748638,-0.225645,-0.214511,0.133144,-0.0313333,-0.00239818,0.0149721,0.0490616,-0.03081,0.00115079,0.166251
1413393226455760384,-2.1871,-0.6206,2.07583,0.527312,-0.332055,-0.75012,-0.221364,-0.22839,0.131747,-0.0539153,-0.00289464,0.0148337,0.0492725,-0.0376914,0.0162703,0.145392
1413393226505760512,-2.19868,-0.612435,2.07369,0.5237,-0.335958,-0.751108,-0.2207,-0.242642,0.13778,-0.101457,-0.00292868,0.0148687,0.0493822,-0.0383167,0.0176179,0.143897
1413393226555760384,-2.21016,-0.604224,2.06953,0.52143,-0.339108,-0.751688,-0.219277,-0.244566,0.143542,-0.134603,-0.00296363,0.0149289,0.0495434,-0.0412133,0.017565,0.140721
1413393226605760512,-2.22556,-0.598612,2.08654,0.519603,-0.341752,-0.752039,-0.218304,-0.240302,0.159497,-0.159966,-0.00299989,0.0149107,0.0495958,-0.0399705,0.0182311,0.134515
1413393226655760384,-2.23647,-0.588904,2.07558,0.519066,-0.340945,-0.752928,-0.217779,-0.250678,0.175705,-0.140465,-0.00319814,0.0149067,0.0497284,-0.0361738,0.0206402,0.127268
1413393226705760512,-2.25032,-0.580354,2.07531,0.518162,-0.339704,-0.752164,-0.224409,-0.265073,0.195761,-0.133856,-0.00299469,0.0149306,0.0497765,-0.032548,0.0223306,0.126649
1413393226755760384,-2.26372,-0.568597,2.06227,0.519786,-0.334939,-0.751853,-0.228814,-0.26691,0.218095,-0.110844,-0.00315377,0.0149346,0.0498984,-0.0297116,0.0245356,0.121911
1413393226805760512,-2.27892,-0.558843,2.06007,0.518906,-0.333444,-0.751172,-0.235144,-0.295997,0.211587,-0.0940836,-0.0029206,0.0149619,0.0499297,-0.0274901,0.0247768,0.119611
1413393226855760384,-2.29521,-0.547505,2.05175,0.519599,-0.32909,-0.751901,-0.237406,-0.30513,0.213515,-0.115043,-0.00304811,0.0149484,0.049994,-0.019815,0.0266818,0.112182
1413393226905760512,-2.31051,-0.537283,2.05065,0.518238,-0.327579,-0.751873,-0.242504,-0.317333,0.212113,-0.101465,-0.00281394,0.014916,0.049998,-0.0121295,0.028749,0.108469
1413393226955760384,-2.32724,-0.527133,2.04439,0.517854,-0.326167,-0.752269,-0.243997,-0.344111,0.200963,-0.0852155,-0.00276182,0.0149023,0.050078,-0.00747114,0.0286227,0.104861
1413393227005760512,-2.34578,-0.517306,2.03898,0.517653,-0.324978,-0.752567,-0.245087,-0.355882,0.196277,-0.0846137,-0.00273501,0.0148862,0.0500745,-0.00299478,0.0266725,0.101258
1413393227055760384,-2.36501,-0.507445,2.03621,0.518423,-0.325066,-0.751983,-0.245135,-0.374961,0.192178,-0.0786438,-0.00266314,0.0148602,0.0501328,0.00144049,0.0271543,0.0985804
1413393227105760512,-2.38495,-0.49848,2.02887,0.520268,-0.325503,-0.750581,-0.244943,-0.387856,0.179497,-0.0848984,-0.00262143,0.0148133,0.0501637,0.00503402,0.023657,0.0949252
1413393227155760384,-2.4037,-0.492097,2.03044,0.521393,-0.329784,-0.747667,-0.245735,-0.398134,0.176767,-0.0754752,-0.00223986,0.0147662,0.0500871,0.00640048,0.0208079,0.0878187
1413393227205760512,-2.42313,-0.484787,2.02829,0.523123,-0.332516,-0.745456,-0.245096,-0.403246,0.174708,-0.0600288,-0.00203344,0.0147015,0.0500663,0.0066785,0.018228,0.0811579
1413393227255760384,-2.44269,-0.476854,2.02399,0.525944,-0.335071,-0.743311,-0.242073,-0.403806,0.174421,-0.0402865,-0.001978,0.014693,0.0501229,0.00430204,0.0168462,0.0779909
1413393227305760512,-2.46405,-0.467932,2.02677,0.526018,-0.337217,-0.742778,-0.240563,-0.39998,0.170498,-0.0535907,-0.00191974,0.0146556,0.0501152,0.0112994,0.017481,0.0621166
1413393227355760384,-2.48381,-0.45941,2.0293,0.52714,-0.339182,-0.74114,-0.240396,-0.397177,0.168618,-0.0453601,-0.00179324,0.0146717,0.0501728,0.00616315,0.0155598,0.0632714
1413393227405760512,-2.50355,-0.450896,2.02755,0.526819,-0.341182,-0.740683,-0.23968,-0.390119,0.175821,-0.0435213,-0.00170001,0.0145829,0.050261,0.0097987,0.013848,0.0591518
1413393227455760384,-2.52323,-0.44205,2.02663,0.527231,-0.343185,-0.739732,-0.23885,-0.388014,0.180906,-0.0477473,-0.00164313,0.0145116,0.0502732,0.0136184,0.0112185,0.0530335
1413393227505760512,-2.54271,-0.433138,2.02431,0.527674,-0.34457,-0.73875,-0.238915,-0.384826,0.18487,-0.0546543,-0.00159328,0.0144348,0.0503401,0.0108233,0.00724088,0.0483818
1413393227555760384,-2.56187,-0.423602,2.02306,0.52894,-0.346895,-0.736546,-0.239555,-0.374603,0.199251,-0.0534642,-0.00157827,0.0143764,0.0503639,0.0118674,0.00362897,0.0414479
1413393227605760512,-2.58031,-0.413565,2.0192,0.529722,-0.350232,-0.73413,-0.240389,-0.365055,0.204812,-0.0566621,-0.00156678,0.0142683,0.0503462,0.0173067,0.00172449,0.037473
1413393227655760384,-2.59801,-0.403048,2.01567,0.529408,-0.353871,-0.731877,-0.242609,-0.350436,0.218372,-0.0541596,-0.00156344,0.0141844,0.0503566,0.0177377,-3.62562e-06,0.033725
1413393227705760512,-2.61504,-0.391828,2.01234,0.528262,-0.358642,-0.729375,-0.245617,-0.331378,0.230827,-0.0642484,-0.00158184,0.0140905,0.0503369,0.0175471,-0.00137041,0.0327632
1413393227755760384,-2.63112,-0.380169,2.0079,0.527471,-0.364716,-0.72585,-0.248796,-0.312482,0.237776,-0.0818119,-0.00160118,0.0139773,0.0503752,0.0158928,-0.00269636,0.0318224
1413393227805760512,-2.64689,-0.368534,2.00628,0.525733,-0.369902,-0.722755,-0.253777,-0.294119,0.239216,-0.104881,-0.00162868,0.0138727,0.0503649,0.0143629,-0.0026906,0.0343748
1413393227855760384,-2.66049,-0.356011,2.00185,0.525118,-0.377597,-0.718014,-0.257155,-0.269827,0.256348,-0.10506,-0.00168301,0.0138548,0.050345,0.00653048,-0.00202284,0.0276115
1413393227905760512,-2.67354,-0.342659,1.99927,0.523453,-0.385526,-0.713391,-0.261612,-0.259122,0.263854,-0.0909919,-0.00171818,0.0138444,0.0503806,0.000746051,0.000485305,0.0180324
1413393227955760384,-2.6855,-0.328908,1.99967,0.522532,-0.393355,-0.707748,-0.267067,-0.228405,0.271358,-0.0904928,-0.00176965,0.0138536,0.0503782,-0.00695139,-0.000340291,0.0139417
1413393228005760512,-2.69652,-0.31476,1.99637,0.52041,-0.40246,-0.701982,-0.272803,-0.195773,0.283826,-0.105775,-0.00181628,0.0138276,0.0503962,-0.0102582,0.00283187,0.0117755
1413393228055760384,-2.70699,-0.299614,1.99545,0.517285,-0.411513,-0.696114,-0.280178,-0.19241,0.286893,-0.107142,-0.00179326,0.013898,0.0505089,-0.017667,0.00981871,0.00716106
1413393228105760512,-2.7179,-0.28404,1.99275,0.513891,-0.421043,-0.690306,-0.28656,-0.182956,0.296374,-0.0779597,-0.00168571,0.0139669,0.0505971,-0.0208637,0.0228652,-0.00232068
1413393228155760384,-2.72541,-0.268398,1.98873,0.50957,-0.430077,-0.68486,-0.293836,-0.153723,0.300327,-0.0958742,-0.00177118,0.0139472,0.0506207,-0.0275018,0.0203962,-0.00250588
1413393228205760512,-2.73232,-0.251641,1.98417,0.505,-0.439249,-0.679982,-0.299434,-0.147883,0.307217,-0.074428,-0.00181124,0.0140705,0.0506068,-0.0381925,0.0216438,-0.00499806
1413393228255760384,-2.73865,-0.232703,1.97773,-0.49954,0.446359,0.676662,0.305537,-0.136413,0.321664,-0.0443886,-0.00187216,0.0143713,0.0507503,-0.0579618,0.0258907,-0.00689921
1413393228305760512,-2.74663,-0.216593,1.97586,-0.495321,0.452543,0.672698,0.311993,-0.132494,0.323662,-0.0389787,-0.00183679,0.0143611,0.050775,-0.0568745,0.0295234,-0.00741436
1413393228355760384,-2.7544,-0.198911,1.97714,-0.491175,0.458062,0.669246,0.317861,-0.134318,0.333407,-0.0240527,-0.00180944,0.0144043,0.0507897,-0.0561363,0.0365064,-0.0149624
1413393228405760512,-2.76092,-0.177875,1.97909,-0.486077,0.464135,0.66621,0.323222,-0.12176,0.35184,0.00173927,-0.00183712,0.0147261,0.050899,-0.0684488,0.044367,-0.0237574
1413393228455760384,-2.7692,-0.160782,1.97966,-0.482733,0.470543,0.661383,0.328833,-0.122564,0.353974,0.00921087,-0.00180757,0.0147134,0.0510365,-0.0670378,0.0470794,-0.0225478
1413393228505760512,-2.77726,-0.143685,1.98006,-0.480761,0.475548,0.655865,0.335506,-0.135804,0.348256,0.00836275,-0.00175619,0.0147123,0.0511432,-0.066899,0.0476159,-0.020776
1413393228555760384,-2.78913,-0.124802,1.98972,-0.477268,0.481659,0.651103,0.341005,-0.130491,0.351467,0.0126845,-0.00156509,0.0149127,0.0513561,-0.0744718,0.0545534,-0.0197418
1413393228605760512,-2.79727,-0.106544,1.98723,-0.472938,0.488155,0.647035,0.345515,-0.140059,0.350813,0.0217851,-0.00150912,0.0150081,0.0515136,-0.0789514,0.0572271,-0.0187081
1413393228655760384,-2.80494,-0.0878048,1.98784,-0.469824,0.494308,0.643295,0.347989,-0.15288,0.351024,0.03378,-0.00146919,0.01514,0.0515475,-0.082526,0.0609245,-0.0238859
1413393228705760512,-2.805,-0.0678239,1.9856,-0.466949,0.499083,0.641067,0.349153,-0.124943,0.361743,0.0318256,-0.00169622,0.0152054,0.051501,-0.0814606,0.0620604,-0.0424736
1413393228755760384,-2.81082,-0.0498065,1.985,-0.46446,0.50348,0.638716,0.350467,-0.134187,0.363286,0.0368413,-0.00175132,0.0152196,0.051537,-0.0808987,0.0616656,-0.0430465
1413393228805760512,-2.81651,-0.0313708,1.98294,-0.46205,0.507951,0.637564,0.349296,-0.137474,0.380004,0.019407,-0.00179603,0.0152422,0.0515536,-0.0805081,0.0597935,-0.0431975
1413393228855760384,-2.82257,-0.0124673,1.98154,-0.459799,0.512131,0.636804,0.347545,-0.124015,0.387732,0.00714229,-0.00183972,0.0152528,0.0516272,-0.0817036,0.0572788,-0.0387363
1413393228905760512,-2.8365,0.00443781,1.99581,-0.455737,0.515213,0.637745,0.346614,-0.136964,0.392888,0.0037419,-0.001626,0.0152222,0.0518636,-0.0777802,0.0609658,-0.0270988
1413393228955760384,-2.84098,0.0246702,1.99585,-0.454646,0.517384,0.637486,0.345286,-0.13196,0.407511,-0.00570302,-0.00169627,0.0152667,0.0518478,-0.0819155,0.0562774,-0.026313
1413393229005760512,-2.84641,0.0462132,1.99774,-0.452654,0.517542,0.637978,0.346754,-0.115027,0.435388,0.00181987,-0.0017192,0.0153163,0.0518783,-0.0823963,0.058119,-0.0264759
1413393229055760384,-2.85345,0.0689882,2.00012,-0.449233,0.514411,0.640472,0.351236,-0.128298,0.461506,-0.019976,-0.00169467,0.015405,0.0519636,-0.0844269,0.0617712,-0.0285762
1413393229105760512,-2.86523,0.092213,1.99104,-0.44696,0.510429,0.641866,0.357347,-0.142574,0.4699,-0.0501082,-0.00144968,0.0154084,0.0521339,-0.0788596,0.0717311,-0.0248224
1413393229155760384,-2.87061,0.115428,1.99836,-0.445562,0.50781,0.642735,0.361241,-0.138538,0.468852,-0.0340587,-0.00152882,0.0154721,0.0521556,-0.085953,0.0685653,-0.0219536
1413393229205760512,-2.87764,0.139076,1.99943,-0.444574,0.504927,0.644012,0.364213,-0.161494,0.470896,-0.0578051,-0.00156606,0.0155658,0.0521659,-0.0910183,0.0671976,-0.0214584
1413393229255760384,-2.88512,0.162508,1.99656,-0.443931,0.502281,0.645213,0.366524,-0.175135,0.468737,-0.0670574,-0.00158162,0.0156703,0.0522206,-0.0956033,0.0659833,-0.0184778
1413393229305760512,-2.89281,0.185943,1.99308,-0.444305,0.499967,0.645584,0.368575,-0.182033,0.466661,-0.0775772,-0.00160933,0.0157147,0.0522885,-0.0956306,0.0651343,-0.0197424
1413393229355760384,-2.90315,0.209841,1.98893,-0.44459,0.497363,0.64661,0.369954,-0.224378,0.472389,-0.0919513,-0.00148943,0.0158074,0.052474,-0.0915335,0.0838914,-0.0191685
1413393229405760512,-2.91111,0.2327,1.99825,-0.447368,0.497156,0.645661,0.368537,-0.235448,0.471455,-0.0995951,-0.00162247,0.0158927,0.0524282,-0.0972297,0.0778204,-0.018399
1413393229455760384,-2.92255,0.256284,1.99198,-0.451595,0.49799,0.64337,0.366255,-0.24572,0.466619,-0.0953991,-0.00165377,0.0159235,0.0524397,-0.0967704,0.0771464,-0.0156955
1413393229505760512,-2.93503,0.279755,1.98421,-0.456103,0.499407,0.641181,0.36256,-0.267257,0.461727,-0.0959021,-0.00165331,0.0159841,0.0524959,-0.0958073,0.0764844,-0.0124538
1413393229555760384,-2.94857,0.303262,1.98992,-0.459055,0.501485,0.639749,0.358473,-0.268629,0.461485,-0.0881836,-0.00170496,0.0158793,0.0525505,-0.0818411,0.0701584,-0.00956371
1413393229605760512,-2.97254,0.329132,1.98809,-0.460009,0.506893,0.636457,0.355491,-0.24819,0.467039,-0.0788091,-0.00143036,0.015829,0.0524851,-0.0782002,0.0738874,-0.0105045
1413393229655760384,-2.98543,0.352699,1.98176,-0.460479,0.509693,0.636688,0.350431,-0.253817,0.46377,-0.0729413,-0.00143355,0.0159002,0.0525269,-0.0787512,0.0728455,-0.00664019
1413393229705760512,-2.99702,0.376232,1.97524,-0.459524,0.511436,0.637905,0.346914,-0.233696,0.472519,-0.0602525,-0.00146417,0.0159039,0.0525633,-0.0740308,0.0709179,-0.00148642
1413393229755760384,-3.00761,0.400115,1.96279,-0.458466,0.512717,0.639249,0.343933,-0.228088,0.47553,-0.047023,-0.00150637,0.0158867,0.0526576,-0.0638677,0.0678533,0.00420423
1413393229805760512,-3.01861,0.423936,1.96505,-0.455678,0.514786,0.641491,0.340356,-0.217193,0.491319,-0.0264821,-0.00151856,0.0159577,0.052649,-0.0655964,0.0671808,0.0035175
1413393229855760384,-3.04696,0.453691,1.95028,-0.450865,0.520074,0.639993,0.341544,-0.199471,0.505662,-0.0136638,-0.00100338,0.0157474,0.0526022,-0.0597739,0.0716682,-0.00548637
1413393229905760512,-3.05783,0.478626,1.95132,-0.448421,0.52142,0.641611,0.339671,-0.191806,0.516234,0.00237814,-0.000961685,0.0157584,0.0526337,-0.0601401,0.0697082,-0.0123685
1413393229955760384,-3.06704,0.505014,1.9545,-0.44658,0.521176,0.643404,0.339077,-0.187031,0.546801,0.0177394,-0.000957636,0.0158476,0.0526759,-0.0630068,0.0689085,-0.0116133
1413393230005760512,-3.07527,0.532703,1.95707,-0.444499,0.519177,0.645456,0.340972,-0.172174,0.572092,0.0662093,-0.000981683,0.0158685,0.0527044,-0.0630579,0.0667324,-0.00871625
1413393230055760384,-3.08366,0.561907,1.96142,-0.443528,0.514568,0.647092,0.346084,-0.183928,0.597149,0.0709192,-0.00100445,0.0159319,0.0527182,-0.0673072,0.0649607,-0.00553247
1413393230105760512,-3.09288,0.592299,1.96697,-0.442508,0.510279,0.648656,0.350782,-0.183268,0.613616,0.0630792,-0.000989213,0.0159876,0.0527353,-0.0677864,0.0649991,-0.00441793
1413393230155760384,-3.10343,0.623621,1.97293,-0.442311,0.507026,0.649407,0.354339,-0.198343,0.626026,0.0592379,-0.000953063,0.0160543,0.052812,-0.0639262,0.065143,-0.00929593
1413393230205760512,-3.1225,0.655449,1.98879,-0.440698,0.504732,0.650445,0.357704,-0.238224,0.627074,0.0415963,-0.000684974,0.0161076,0.052769,-0.0598507,0.0737296,-0.0259267
1413393230255760384,-3.14041,0.687093,1.99135,-0.44128,0.50364,0.649132,0.360897,-0.260377,0.635126,0.0248624,-0.000430457,0.0161772,0.0528386,-0.0660946,0.0796861,-0.0328398
1413393230305760512,-3.1762,0.713407,2.01481,-0.440669,0.509689,0.63929,0.370589,-0.28992,0.640544,0.0114945,0.000738023,0.0157987,0.0526619,-0.0842654,0.0965277,-0.0986419
1413393230355760384,-3.19205,0.74216,2.0246,-0.441944,0.511668,0.637059,0.370185,-0.305115,0.638479,-0.0310748,0.000967608,0.0157308,0.0526912,-0.0819904,0.0942156,-0.102015
1413393230405760512,-3.17837,0.774389,2.01948,-0.448207,0.505242,0.643248,0.360656,-0.307309,0.633149,-0.0366581,-2.16644e-05,0.0160132,0.052957,-0.063487,0.0944101,-0.0517085
1413393230455760384,-3.21222,0.804863,2.02677,-0.446718,0.513083,0.635527,0.365095,-0.321823,0.657246,-0.0329694,0.000863246,0.015848,0.0528372,-0.0758547,0.0982076,-0.0923245
1413393230505760512,-3.23815,0.83778,2.02703,-0.446504,0.519266,0.630018,0.366162,-0.328397,0.666557,-0.0102163,0.00126317,0.0158394,0.0528332,-0.0829787,0.0927551,-0.110493
1413393230555760384,-3.25208,0.871055,2.02938,-0.446563,0.524789,0.625733,0.365562,-0.315009,0.672869,-0.0291382,0.00131244,0.0158557,0.0528314,-0.0822088,0.0909979,-0.121172
1413393230605760512,-3.25347,0.903904,2.0309,-0.447146,0.528747,0.623521,0.362918,-0.294963,0.683772,-0.0157164,0.000962862,0.0159779,0.0529335,-0.0740372,0.092948,-0.104639
1413393230655760384,-3.26193,0.937639,2.03321,-0.446543,0.535304,0.618626,0.362423,-0.283897,0.68977,0.0133943,0.000788958,0.0160887,0.0529701,-0.0768783,0.0898378,-0.105891
1413393230705760512,-3.27097,0.971895,2.02554,-0.443925,0.541717,0.613429,0.364937,-0.264753,0.714462,0.0579096,0.000773557,0.0160478,0.0530266,-0.0640056,0.0867997,-0.103369
1413393230755760384,-3.2821,1.0065,2.02971,-0.441316,0.549038,0.606934,0.368006,-0.236607,0.715129,0.0649326,0.00074039,0.0160176,0.0530982,-0.0560225,0.0803159,-0.102802
1413393230805760512,-3.29442,1.04123,2.04529,-0.438259,0.556151,0.600165,0.372059,-0.218267,0.722723,0.0723784,0.000702337,0.0159481,0.0531636,-0.0483337,0.0704789,-0.0992197
1413393230855760384,-3.31075,1.07857,2.04894,-0.432102,0.56441,0.593651,0.377237,-0.206914,0.749967,0.0874519,0.00102701,0.016096,0.0531469,-0.0489458,0.094364,-0.1009
1413393230905760512,-3.32075,1.11582,2.05283,-0.425806,0.571433,0.587122,0.383982,-0.19394,0.764942,0.115287,0.00108497,0.0161261,0.0532062,-0.0478408,0.0926641,-0.0946822
1413393230955760384,-3.3239,1.15241,2.05655,-0.418765,0.576266,0.582275,0.391802,-0.161786,0.769031,0.128389,0.000924852,0.0161084,0.0532492,-0.0485644,0.0767714,-0.0912633
1413393231005760512,-3.32872,1.19018,2.05628,-0.410459,0.580253,0.578168,0.400689,-0.140983,0.775862,0.141764,0.000890627,0.0161235,0.0533211,-0.0522576,0.0670679,-0.0855817
1413393231055760384,-3.3274,1.22715,2.06476,-0.402801,0.582499,0.575989,0.408268,-0.131919,0.789201,0.131237,0.000692966,0.0161309,0.0533733,-0.0482792,0.061488,-0.0753863
1413393231105760512,-3.33221,1.26583,2.07428,-0.396238,0.584626,0.573144,0.415589,-0.151541,0.79131,0.130824,0.00066967,0.0161665,0.0534007,-0.0495816,0.0595327,-0.0760399
1413393231155760384,-3.33965,1.30521,2.07967,-0.390564,0.586405,0.570572,0.421944,-0.162863,0.796063,0.143988,0.000703326,0.0161889,0.0534589,-0.0497869,0.0562197,-0.0753031
1413393231205760512,-3.3459,1.34401,2.0839,-0.386841,0.589028,0.567812,0.425428,-0.175382,0.802192,0.142241,0.00063956,0.0161984,0.0535376,-0.0491436,0.0512955,-0.0776841
1413393231255760384,-3.35537,1.38402,2.09114,-0.38316,0.5908,0.565694,0.429108,-0.210689,0.804324,0.134523,0.000658507,0.0161948,0.0535886,-0.0469512,0.0498523,-0.0790823
1413393231305760512,-3.3657,1.42502,2.09375,-0.382355,0.593221,0.562687,0.430439,-0.221918,0.798285,0.088992,0.00067718,0.0162404,0.0536226,-0.0480486,0.0522735,-0.0790343
1413393231355760384,-3.34231,1.45697,2.06403,-0.390235,0.590781,0.567143,0.420766,-0.240556,0.787217,0.0407219,-0.000421937,0.0163057,0.0536906,-0.0342625,0.139297,-0.0365498
1413393231405760512,-3.35212,1.49466,2.06095,-0.39325,0.593005,0.5634,0.419857,-0.256821,0.79437,-0.00179682,-0.000449239,0.0162397,0.053757,-0.0262147,0.140258,-0.0333712
1413393231455760384,-3.36471,1.53402,2.05907,-0.398154,0.594767,0.558291,0.419567,-0.251525,0.796289,-0.035282,-0.000448142,0.0162327,0.0538007,-0.026097,0.140261,-0.0326693
1413393231505760512,-3.3774,1.57357,2.056,-0.40491,0.595379,0.552213,0.420276,-0.260288,0.787822,-0.0796595,-0.000424771,0.0162514,0.0538381,-0.0257534,0.142035,-0.0330046
1413393231555760384,-3.39024,1.61294,2.0514,-0.413142,0.593875,0.545869,0.422673,-0.262443,0.780119,-0.127782,-0.000401322,0.0162538,0.0538879,-0.0267642,0.142601,-0.0325337
1413393231605760512,-3.40273,1.65144,2.04429,-0.420684,0.592288,0.53977,0.425286,-0.237547,0.754361,-0.159078,-0.000385398,0.0162533,0.0539421,-0.025949,0.142613,-0.0315634
1413393231655760384,-3.41467,1.68847,2.03572,-0.425439,0.591752,0.534945,0.427395,-0.235085,0.723937,-0.176108,-0.000360758,0.0162578,0.0539802,-0.0233628,0.144136,-0.030624
1413393231705760512,-3.42565,1.72363,2.02495,-0.426587,0.591964,0.53224,0.429328,-0.210026,0.690041,-0.179543,-0.000356062,0.016221,0.054046,-0.0163773,0.142216,-0.0297797
1413393231755760384,-3.43528,1.75693,2.01364,-0.424959,0.594616,0.529924,0.430142,-0.180013,0.654475,-0.170788,-0.000365494,0.0161425,0.0541016,-0.00766969,0.139552,-0.0302577
1413393231805760512,-3.4442,1.78861,2.00568,-0.422455,0.598779,0.527823,0.429416,-0.179146,0.613188,-0.165593,-0.000376485,0.016106,0.0541466,-0.00209311,0.138374,-0.031973
1413393231855760384,-3.45194,1.81862,1.99723,-0.420478,0.60486,0.52458,0.4268,-0.148455,0.578573,-0.154049,-0.000369635,0.0161124,0.0541833,-0.00176984,0.139305,-0.0355885
1413393231905760512,-3.45847,1.84727,1.98922,-0.416305,0.61292,0.521158,0.423573,-0.113567,0.554937,-0.130096,-0.000363706,0.0161013,0.0542195,-0.00166899,0.14138,-0.0349514
1413393231955760384,-3.46346,1.87501,1.98333,-0.412753,0.620695,0.51672,0.421157,-0.0902288,0.54731,-0.114666,-0.000330129,0.0161021,0.054254,-0.00342746,0.145825,-0.0370259
1413393232005760512,-3.46682,1.90192,1.97966,-0.408866,0.628149,0.511518,0.420247,-0.0457293,0.522226,-0.106525,-0.000302765,0.0161217,0.0543058,-0.00570583,0.148539,-0.0367758
1413393232055760384,-3.46814,1.92804,1.97479,-0.402711,0.634252,0.507403,0.422009,-0.0032346,0.521794,-0.071255,-0.000291904,0.0160753,0.0543464,-0.00139379,0.147827,-0.0351666
1413393232105760512,-3.46722,1.95315,1.97266,-0.396653,0.63977,0.502626,0.425121,0.0286654,0.499588,-0.0480043,-0.00033041,0.0160632,0.0544015,-0.00510159,0.144064,-0.0375004
1413393232155760384,-3.46474,1.97779,1.96969,-0.39008,0.645097,0.4975,0.429163,0.0680121,0.485545,-0.0524649,-0.000325512,0.0160443,0.0544591,-0.00867695,0.143799,-0.0383673
1413393232205760512,-3.46086,2.00204,1.96876,-0.382956,0.648554,0.492235,0.43638,0.0980745,0.485507,-0.0447868,-0.000329059,0.0160478,0.0545,-0.0164944,0.142532,-0.0384472
1413393232255760384,-3.4554,2.02582,1.96701,-0.376535,0.652737,0.48611,0.442554,0.120826,0.478611,-0.0782104,-0.000368318,0.0160226,0.0545389,-0.0198507,0.139569,-0.0376267
1413393232305760512,-3.44825,2.04929,1.96253,-0.370445,0.657068,0.479473,0.448485,0.151974,0.46953,-0.110393,-0.000387295,0.0159977,0.0545902,-0.022277,0.138115,-0.0389921
1413393232355760384,-3.43991,2.07262,1.95594,-0.365361,0.662727,0.471495,0.452765,0.169249,0.46737,-0.144867,-0.000413241,0.0160133,0.0546327,-0.0277951,0.137936,-0.0388217
1413393232405760512,-3.43051,2.09572,1.94906,-0.359297,0.668732,0.464738,0.455765,0.196168,0.461657,-0.159809,-0.000442567,0.0160132,0.0546818,-0.0327699,0.138107,-0.0392532
1413393232455760384,-3.41978,2.11854,1.93939,-0.353345,0.674388,0.457662,0.459232,0.219111,0.452778,-0.198214,-0.000448438,0.016024,0.0547367,-0.0382417,0.138952,-0.0389854
1413393232505760512,-3.40818,2.14124,1.92789,-0.348147,0.680093,0.450535,0.461828,0.237093,0.456565,-0.231966,-0.000465323,0.0160261,0.054828,-0.0408564,0.140021,-0.0381934
1413393232555760384,-3.39599,2.16451,1.91681,-0.343765,0.684704,0.444324,0.464308,0.255504,0.460689,-0.266451,-0.000467589,0.0160477,0.0548754,-0.0433324,0.142978,-0.0352138
1413393232605760512,-3.38272,2.18772,1.90306,-0.340016,0.68809,0.439677,0.466483,0.265933,0.456615,-0.293816,-0.00044979,0.0160972,0.0548942,-0.0479927,0.147386,-0.0327922
1413393232655760384,-3.36857,2.21065,1.88961,-0.337588,0.691335,0.434709,0.468101,0.295559,0.453223,-0.269482,-0.000424371,0.0161247,0.0549163,-0.0510582,0.152502,-0.0323136
1413393232705760512,-3.35363,2.23356,1.87688,-0.335616,0.693406,0.430745,0.470116,0.303357,0.457354,-0.258381,-0.00043096,0.0161624,0.0549916,-0.0539096,0.154187,-0.0285928
1413393232755760384,-3.33749,2.25599,1.86477,-0.332728,0.694501,0.428974,0.472167,0.325617,0.448749,-0.232585,-0.000440087,0.0161447,0.0550537,-0.0561797,0.154957,-0.0260473
1413393232805760512,-3.32027,2.27825,1.8539,-0.33037,0.695846,0.427344,0.473319,0.357408,0.453128,-0.225569,-0.000442959,0.0161522,0.055072,-0.0574015,0.155486,-0.02658
1413393232855760384,-3.30212,2.30119,1.84358,-0.329267,0.696407,0.425686,0.474755,0.365648,0.461627,-0.214269,-0.000464035,0.0161674,0.0551676,-0.058456,0.155555,-0.0269064
1413393232905760512,-3.28312,2.32372,1.83332,-0.326977,0.697227,0.425937,0.474908,0.38755,0.452284,-0.201474,-0.00047439,0.0161556,0.0552108,-0.0591939,0.15554,-0.0270327
1413393232955760384,-3.26302,2.34619,1.82493,-0.322996,0.696413,0.427805,0.477143,0.40844,0.447875,-0.154513,-0.000508672,0.0161698,0.055251,-0.0606603,0.15488,-0.0277952
1413393233005760512,-3.24221,2.36896,1.81814,-0.319775,0.696016,0.429662,0.478222,0.418158,0.460101,-0.119889,-0.00052572,0.0161759,0.0552418,-0.0630209,0.153707,-0.0296562
1413393233055760384,-3.22146,2.39385,1.81434,-0.315944,0.6955,0.432144,0.479282,0.424878,0.474843,-0.0762224,-0.000385051,0.0163254,0.0552941,-0.0674042,0.16346,-0.0272226
1413393233105760512,-3.19982,2.41716,1.81049,-0.313184,0.695297,0.434141,0.479582,0.439867,0.466983,-0.0458103,-0.000396192,0.0163055,0.0553504,-0.0645601,0.162283,-0.0257776
1413393233155760384,-3.17777,2.44119,1.8095,-0.311738,0.694652,0.43555,0.480181,0.440698,0.482819,-0.00257073,-0.000406454,0.0163069,0.0553542,-0.0652794,0.16242,-0.0269458
1413393233205760512,-3.15445,2.46412,1.81109,-0.311052,0.6931,0.436659,0.481859,0.45327,0.495272,0.0493488,-0.000552935,0.0162743,0.0553546,-0.0659573,0.155177,-0.0296846
1413393233255760384,-3.13002,2.48675,1.81565,-0.311021,0.691134,0.435191,0.486014,0.475633,0.480849,0.0916784,-0.000746816,0.0162463,0.0553499,-0.0693525,0.147518,-0.0303108
1413393233305760512,-3.10579,2.50976,1.82205,-0.310463,0.689319,0.433431,0.4905,0.474022,0.489754,0.141461,-0.000896542,0.0163094,0.055346,-0.0761954,0.142727,-0.0249372
1413393233355760384,-3.08194,2.53418,1.83009,-0.310253,0.687724,0.429568,0.496235,0.479886,0.487385,0.196025,-0.000941622,0.0163412,0.0553345,-0.0756988,0.143001,-0.0249351
1413393233405760512,-3.05801,2.55808,1.84003,-0.310282,0.68712,0.423818,0.501966,0.475907,0.470908,0.206782,-0.000941586,0.0163411,0.0553345,-0.0758307,0.142873,-0.0247804
1413393233455760384,-3.03462,2.58177,1.85147,-0.311643,0.688501,0.415418,0.506235,0.466135,0.467077,0.255776,-0.000990661,0.0163525,0.0553161,-0.0753833,0.143352,-0.0247306
1413393233505760512,-3.01166,2.60484,1.86632,-0.308139,0.689984,0.409979,0.510773,0.455017,0.437498,0.299724,-0.00101609,0.0163603,0.055324,-0.0756524,0.14437,-0.0243934
1413393233555760384,-2.98966,2.62749,1.88143,-0.305059,0.693684,0.402903,0.513235,0.449046,0.417129,0.30444,-0.0010465,0.0164123,0.0554043,-0.0746581,0.14731,-0.0238987
1413393233605760512,-2.97123,2.65552,1.89708,-0.296043,0.698659,0.397379,0.516066,0.434328,0.435118,0.348124,-0.000675303,0.0165253,0.0555691,-0.0712844,0.162475,-0.020622
1413393233655760384,-2.95091,2.68007,1.91465,-0.287251,0.70526,0.391435,0.516598,0.423666,0.433472,0.384459,-0.000512525,0.0166813,0.0556868,-0.0739792,0.168379,-0.0183421
1413393233705760512,-2.9304,2.70421,1.93312,-0.277981,0.712825,0.384945,0.516164,0.409452,0.432645,0.422189,-0.000389444,0.0168879,0.0558143,-0.0773701,0.172717,-0.016295
1413393233755760384,-2.91015,2.72575,1.95375,-0.26961,0.716302,0.378222,0.52074,0.398495,0.43503,0.477402,-0.000369049,0.0168329,0.0559363,-0.0733697,0.173104,-0.0154807
1413393233805760512,-2.89186,2.74729,1.97783,-0.26428,0.71911,0.3709,0.524852,0.372626,0.421439,0.498036,-0.000351972,0.0168177,0.0559118,-0.0793555,0.170711,-0.0138263
1413393233855760384,-2.87505,2.76935,2.00263,-0.259788,0.719334,0.362858,0.532357,0.345614,0.433993,0.488534,-0.000347498,0.0168593,0.0558808,-0.0923088,0.16714,-0.00976077
1413393233905760512,-2.86145,2.79453,2.02786,-0.261678,0.722711,0.349043,0.53608,0.324447,0.433794,0.494568,-0.000243944,0.0170402,0.0556184,-0.116677,0.166366,-0.0105728
1413393233955760384,-2.84591,2.81677,2.05317,-0.260272,0.725774,0.337478,0.540018,0.319193,0.41138,0.493282,-0.000229896,0.0172864,0.0556093,-0.131259,0.169601,-0.00990987
1413393234005760512,-2.83027,2.83558,2.06993,-0.258625,0.728503,0.329188,0.542247,0.293823,0.400419,0.498813,-0.000326179,0.0173055,0.0558747,-0.135927,0.163777,-0.00404924
1413393234055760384,-2.81445,2.8523,2.10106,-0.254961,0.732365,0.32438,0.541678,0.279748,0.378823,0.488316,-0.000403941,0.0174851,0.0561788,-0.125252,0.157629,0.00313283
1413393234105760512,-2.80624,2.87057,2.17296,-0.249624,0.736315,0.319973,0.54143,0.271029,0.350126,0.474092,-0.000448735,0.0175651,0.0565314,-0.110461,0.142726,0.00990743
1413393234155760384,-2.79337,2.88797,2.19728,-0.245254,0.742105,0.312583,0.539836,0.259822,0.335088,0.433309,-0.000461267,0.0177001,0.0565362,-0.110161,0.141881,0.0106474
1413393234205760512,-2.78025,2.9044,2.21851,-0.243403,0.746313,0.304908,0.539262,0.264613,0.311976,0.40931,-0.000459929,0.0177,0.0565366,-0.110378,0.141791,0.0111639
1413393234255760384,-2.76678,2.91926,2.23874,-0.245685,0.747597,0.294077,0.542454,0.279115,0.282878,0.375343,-0.000461211,0.0177002,0.0565376,-0.110244,0.142211,0.0115551
1413393234305760512,-2.75259,2.93273,2.25681,-0.251432,0.747555,0.281105,0.546738,0.286309,0.25507,0.347807,-0.00045915,0.0177002,0.0565369,-0.109818,0.142908,0.0118496
1413393234355760384,-2.73792,2.9444,2.27372,-0.257946,0.747398,0.267769,0.5506,0.290437,0.212478,0.326373,-0.000462463,0.0176999,0.0565377,-0.109275,0.144,0.012072
1413393234405760512,-2.72349,2.95358,2.2892,-0.262616,0.74723,0.25445,0.554919,0.295922,0.158304,0.275987,-0.000455022,0.0177003,0.0565369,-0.108839,0.144201,0.0121258
1413393234455760384,-2.71102,2.95996,2.30841,-0.265961,0.747181,0.243319,0.558374,0.281326,0.107216,0.243156,-0.000490354,0.0177194,0.0567443,-0.103395,0.139752,0.015259
1413393234505760512,-2.69923,2.96315,2.32848,-0.264816,0.747641,0.234798,0.561939,0.275,0.0285384,0.206642,-0.000507171,0.0177224,0.0569471,-0.0962978,0.134569,0.0166949
1413393234555760384,-2.68712,2.96002,2.33613,-0.259699,0.7485,0.227145,0.566312,0.276759,-0.0724934,0.249493,-0.000578831,0.0176725,0.0568489,-0.0853857,0.126297,0.0140289
1413393234605760512,-2.67436,2.95416,2.348,-0.246638,0.749393,0.224502,0.571996,0.285292,-0.145849,0.251902,-0.000600899,0.0176304,0.056875,-0.0790967,0.121738,0.0133872
1413393234655760384,-2.66054,2.94413,2.3607,-0.227331,0.749185,0.22562,0.579775,0.272888,-0.232337,0.320557,-0.00067839,0.0175733,0.0568204,-0.071752,0.116897,0.0122034
1413393234705760512,-2.64795,2.93109,2.38129,-0.203893,0.750517,0.229529,0.585208,0.233021,-0.304367,0.470213,-0.000652532,0.0175955,0.0570049,-0.0689624,0.116428,0.0127555
1413393234755760384,-2.6375,2.91521,2.40585,-0.183633,0.754076,0.230919,0.586792,0.192513,-0.335658,0.496047,-0.000632721,0.017671,0.0571107,-0.0686378,0.116886,0.0129181
1413393234805760512,-2.62864,2.89823,2.43111,-0.163848,0.759487,0.231757,0.58534,0.159017,-0.342477,0.494131,-0.00064364,0.0177205,0.0571124,-0.067808,0.11681,0.0129556
1413393234855760384,-2.62144,2.88107,2.45413,-0.149936,0.766628,0.228313,0.581097,0.134218,-0.341996,0.423966,-0.000652595,0.0177739,0.0571148,-0.0669948,0.116743,0.0129619
1413393234905760512,-2.61526,2.86437,2.47364,-0.141987,0.773656,0.220744,0.576687,0.115873,-0.33279,0.336961,-0.000677932,0.0178111,0.0571027,-0.0662627,0.116145,0.0131507
1413393234955760384,-2.61062,2.84872,2.48922,-0.136265,0.778889,0.211335,0.574545,0.0949699,-0.317843,0.22671,-0.000652376,0.0177429,0.0571662,-0.0591636,0.11285,0.0129988
1413393235005760512,-2.60645,2.8337,2.48726,-0.134259,0.783138,0.198385,0.573858,0.076646,-0.310815,0.109826,-0.000602571,0.0175145,0.0572468,-0.0448469,0.106636,0.0130357
1413393235055760384,-2.6029,2.81891,2.47604,-0.133723,0.786397,0.183945,0.574336,0.0664198,-0.307613,-0.0196049,-0.000562276,0.017199,0.0572872,-0.0179236,0.102616,0.0103342
1413393235105760512,-2.59997,2.80299,2.46672,-0.132833,0.789829,0.16953,0.574269,0.0611725,-0.314198,-0.127294,-0.000584513,0.0170288,0.0571986,-0.00597571,0.10131,0.00857288
1413393235155760384,-2.5971,2.78661,2.46118,-0.129782,0.794278,0.157347,0.572295,0.0701031,-0.317872,-0.201564,-0.000659945,0.0171039,0.0571498,-0.00778142,0.105423,0.00591255
1413393235205760512,-2.59303,2.77052,2.45255,-0.120527,0.797134,0.149207,0.572529,0.0727093,-0.319772,-0.214543,-0.000651302,0.0172383,0.0572038,-0.014742,0.108614,0.00702035
1413393235255760384,-2.589,2.7543,2.44208,-0.108932,0.800622,0.142711,0.57164,0.0737832,-0.320599,-0.228205,-0.000669969,0.0173398,0.0572286,-0.0189483,0.111982,0.0064687
1413393235305760512,-2.58491,2.73805,2.43225,-0.0948826,0.803486,0.138494,0.571162,0.0753578,-0.311017,-0.2043,-0.000653245,0.0174145,0.0572955,-0.0220631,0.113146,0.00767161
1413393235355760384,-2.58121,2.72286,2.42385,-0.0831865,0.806487,0.13447,0.569717,0.0743845,-0.291048,-0.196688,-0.00066186,0.0174255,0.0573211,-0.0236605,0.110587,0.00940037
1413393235405760512,-2.5773,2.70929,2.41785,-0.0722983,0.809762,0.132368,0.567043,0.0760915,-0.262269,-0.173435,-0.000664046,0.0174949,0.057401,-0.0294845,0.105346,0.0130096
1413393235455760384,-2.57352,2.699,2.42168,-0.0646137,0.812164,0.129636,0.565163,0.093953,-0.230064,-0.157074,-0.000696899,0.0175029,0.0574311,-0.0266045,0.0969742,0.019838
1413393235505760512,-2.57942,2.69347,2.40707,-0.0482302,0.816207,0.114253,0.564293,0.106491,-0.196216,-0.125854,0.000257709,0.0174291,0.0572223,-0.0302883,0.0862052,0.00795901
1413393235555760384,-2.58659,2.67236,2.40065,-0.0285601,0.817017,0.101107,0.566961,0.127088,-0.158595,-0.0801383,0.0012387,0.0174299,0.0571008,-0.0297871,0.0813562,0.00537693
1413393235605760512,-2.57871,2.66402,2.40625,-0.0178307,0.814736,0.107481,0.569504,0.137005,-0.111883,-0.0981152,0.0010147,0.0175111,0.0571928,-0.0207687,0.069063,0.0197066
1413393235655760384,-2.5726,2.66034,2.40381,-0.00836529,0.812369,0.107979,0.572999,0.148104,-0.0567091,-0.0779356,0.00102331,0.0175473,0.0572985,-0.0145466,0.0633848,0.0229689
1413393235705760512,-2.56449,2.66261,2.39238,-0.00416439,0.809809,0.107377,0.576768,0.143542,0.0137225,-0.0802587,0.00095444,0.0175659,0.0573085,-0.0133623,0.0698,0.0115563
1413393235755760384,-2.57404,2.66406,2.39219,0.0094936,0.808785,0.0881454,0.581384,0.143149,0.0739403,-0.0708416,0.00218897,0.0174885,0.0572716,-0.0262738,0.0522028,-0.0269749
1413393235805760512,-2.55192,2.65665,2.39301,-0.00751817,0.807258,0.101835,0.581298,0.12652,0.142576,-0.0661722,0.000814799,0.0176051,0.0574911,-0.0137619,0.0762629,0.000123575
1413393235855760384,-2.55951,2.67119,2.384,-0.0088194,0.807376,0.0816264,0.584298,0.12379,0.183569,-0.0696981,0.00166151,0.0175669,0.0573391,-0.0159539,0.0759025,-0.0226739
1413393235905760512,-2.55103,2.67886,2.3845,-0.0240631,0.806894,0.0757529,0.585325,0.106108,0.212924,-0.0746436,0.00125714,0.0176057,0.0573805,-0.0115378,0.0850352,-0.0122352
1413393235955760384,-2.5405,2.68527,2.3829,-0.0377738,0.806271,0.0677047,0.586444,0.0966233,0.233639,-0.0635219,0.00093508,0.0175976,0.057424,-0.0126024,0.093064,-0.0120796
1413393236005760512,-2.53621,2.69641,2.38033,-0.0443737,0.805104,0.058491,0.588573,0.0820869,0.227873,-0.0381733,0.000860552,0.0176093,0.0574216,-0.0135191,0.0974592,-0.0140593
1413393236055760384,-2.53229,2.70646,2.37532,-0.0492961,0.804544,0.0474589,0.589938,0.0827626,0.216957,-0.0352325,0.000855742,0.0176234,0.0574445,-0.0130744,0.0995791,-0.014088
1413393236105760512,-2.5278,2.71563,2.36723,-0.0508099,0.804556,0.0376771,0.590499,0.10217,0.199939,0.00629801,0.000828846,0.0176263,0.0574795,-0.0125305,0.104644,-0.014637
1413393236155760384,-2.5213,2.73107,2.36781,-0.0498285,0.804559,0.0273866,0.591145,0.0667445,0.153462,0.015246,0.000816199,0.017617,0.0574808,-0.0170139,0.111768,-0.0188956
1413393236205760512,-2.53217,2.74898,2.3666,-0.0308725,0.806235,0.00936046,0.590715,0.0520329,0.12205,0.0481582,0.00170964,0.0178137,0.0574028,-0.019803,0.0603563,-0.014075
1413393236255760384,-2.53129,2.75066,2.37906,-0.0231463,0.807956,0.00705189,0.588746,0.0193998,0.11308,0.0857311,0.0014466,0.0177726,0.0574933,-0.0254575,0.0734997,-0.0191569
1413393236305760512,-2.53022,2.75497,2.38192,-0.00931397,0.809982,-0.000357925,0.586381,0.0267896,0.0821669,0.0756467,0.0015774,0.0177454,0.0574804,-0.0356292,0.105449,-0.0362338
1413393236355760384,-2.52927,2.76008,2.38742,0.00337494,0.81089,-0.00708674,0.585147,0.029077,0.083441,0.111361,0.00160243,0.0177973,0.057507,-0.035587,0.0973498,-0.0236497
1413393236405760512,-2.52763,2.76405,2.39139,0.0113171,0.812153,-0.0158857,0.583119,0.0358017,0.0972241,0.113792,0.00161322,0.0178048,0.0575475,-0.0402818,0.105851,-0.025753
1413393236455760384,-2.52656,2.76983,2.39755,0.0185508,0.812318,-0.0251919,0.582376,0.030611,0.0928192,0.101064,0.00160168,0.0178299,0.0575893,-0.0377522,0.091966,-0.017595
1413393236505760512,-2.52516,2.77529,2.40323,0.0239765,0.814163,-0.0362323,0.579008,0.0373882,0.088943,0.102772,0.00160772,0.0178314,0.057628,-0.0384991,0.0877613,-0.0157623
1413393236555760384,-2.52305,2.78066,2.4089,0.0297937,0.816861,-0.0468629,0.574155,0.0510981,0.0930543,0.11116,0.00161194,0.0178894,0.0576721,-0.0390085,0.0850387,-0.0109852
1413393236605760512,-2.52013,2.78579,2.41412,0.0340641,0.820745,-0.0584502,0.567276,0.0679528,0.0968077,0.113929,0.001599,0.0178437,0.0576203,-0.0416856,0.0898097,-0.0246411
1413393236655760384,-2.51608,2.79042,2.41766,0.0383602,0.824032,-0.0691986,0.560992,0.0976293,0.0943807,0.062761,0.00161592,0.017848,0.0576906,-0.0361345,0.0924317,-0.0221114
1413393236705760512,-2.51083,2.79568,2.42006,0.0411828,0.825232,-0.0788207,0.557748,0.109866,0.0981057,0.0079759,0.00162301,0.0178743,0.0577257,-0.0328592,0.0931818,-0.0205152
1413393236755760384,-2.52452,2.84154,2.42912,0.0613791,0.822592,-0.110704,0.554365,0.139719,0.0849407,-0.0356466,0.00327547,0.0182198,0.0573867,-0.0245691,0.0242817,0.0106676
1413393236805760512,-2.50569,2.83897,2.43078,0.0501758,0.8214,-0.110985,0.557196,0.154271,0.073241,-0.0821624,0.00243626,0.018047,0.0575692,-0.0298985,0.0672419,-0.00216518
1413393236855760384,-2.48203,2.80762,2.41598,0.0370474,0.821008,-0.10208,0.560494,0.176054,0.0553629,-0.0721526,0.0011457,0.0179216,0.0578579,-0.0375972,0.111847,0.002722
1413393236905760512,-2.47117,2.80869,2.41502,0.0383108,0.81879,-0.106079,0.562905,0.195292,0.0292368,-0.00304482,0.00104411,0.0179434,0.0579217,-0.0363989,0.113311,0.00994977
1413393236955760384,-2.46119,2.81033,2.41699,0.0430777,0.815443,-0.108355,0.566971,0.218014,-0.00708543,0.0378328,0.00104659,0.0179847,0.0579485,-0.0400611,0.111391,0.0247994
1413393237005760512,-2.44973,2.80971,2.4215,0.0486972,0.812507,-0.108295,0.570731,0.231256,-0.0239803,0.127199,0.0010431,0.0179907,0.0579589,-0.0422174,0.112468,0.0266059
1413393237055760384,-2.43827,2.80876,2.42452,0.0543683,0.810557,-0.107214,0.57319,0.221606,-0.0451694,0.194909,0.00104554,0.0180413,0.057979,-0.0498826,0.109647,0.0355544
1413393237105760512,-2.43131,2.81611,2.4407,0.0661168,0.808078,-0.104309,0.575985,0.225421,-0.0490522,0.267764,0.00127052,0.018208,0.0581075,-0.0567251,0.0638879,0.0218198
1413393237155760384,-2.41943,2.81453,2.45474,0.0749049,0.806002,-0.0991224,0.578726,0.233198,-0.0409828,0.251552,0.00128704,0.0182215,0.0581327,-0.0560154,0.0656671,0.0227335
1413393237205760512,-2.40736,2.81346,2.46587,0.0831027,0.804723,-0.0937203,0.580286,0.233167,-0.025466,0.207253,0.00131929,0.0182389,0.0581752,-0.0589728,0.0647013,0.0236018
1413393237255760384,-2.39517,2.8126,2.47505,0.0886687,0.803908,-0.0896849,0.581228,0.242199,-0.0202728,0.138383,0.00134149,0.0182756,0.0582047,-0.0581205,0.0660998,0.024881
1413393237305760512,-2.3828,2.81309,2.48013,0.0928703,0.804533,-0.0865801,0.580178,0.237195,0.0130147,0.0832414,0.00136655,0.0182865,0.0582463,-0.0634449,0.0639383,0.0253129
1413393237355760384,-2.37144,2.81527,2.4827,0.0955865,0.8051,-0.0838309,0.579354,0.230998,0.0499626,0.012121,0.00140859,0.0183078,0.0582796,-0.0642976,0.0641175,0.0239227
1413393237405760512,-2.36009,2.81917,2.48144,0.0967778,0.804543,-0.0824728,0.580123,0.227506,0.0730366,-0.0572366,0.00143572,0.0183294,0.0583285,-0.0608149,0.0591166,0.0216543
1413393237455760384,-2.3491,2.82475,2.47967,0.0945947,0.804053,-0.083113,0.581071,0.230636,0.116223,-0.0879513,0.00146351,0.0183506,0.0583505,-0.0581611,0.0526189,0.0231876
1413393237505760512,-2.33787,2.83185,2.47618,0.0884122,0.803329,-0.0857569,0.58266,0.235596,0.143429,-0.105181,0.00149772,0.0183772,0.0583991,-0.0551357,0.0498248,0.0256175
1413393237555760384,-2.32657,2.84011,2.47178,0.0796645,0.803083,-0.0900774,0.583607,0.227826,0.162871,-0.0973505,0.00149072,0.0183662,0.0584371,-0.0558367,0.0452194,0.0236827
1413393237605760512,-2.31521,2.84881,2.46749,0.0706571,0.802233,-0.0945232,0.585231,0.222563,0.170281,-0.0948384,0.00148587,0.0183737,0.058475,-0.0589457,0.0432458,0.0258709
1413393237655760384,-2.30418,2.85768,2.46259,0.0615796,0.80304,-0.0991639,0.584382,0.214299,0.164979,-0.0818027,0.00147981,0.0183895,0.0584898,-0.0589082,0.0397305,0.0271917
1413393237705760512,-2.29347,2.86603,2.45876,0.0542263,0.803217,-0.102547,0.584283,0.207874,0.150847,-0.0896551,0.00147483,0.018394,0.0585162,-0.0601576,0.0390654,0.0291191
1413393237755760384,-2.28324,2.87326,2.45521,0.0490328,0.804025,-0.104268,0.583325,0.195267,0.130739,-0.0770629,0.00145462,0.0184058,0.0585453,-0.0636886,0.0411136,0.0271518
1413393237805760512,-2.27336,2.87967,2.45172,0.0458977,0.8049,-0.105029,0.582235,0.196163,0.103238,-0.0519127,0.00145901,0.0184177,0.058563,-0.0648783,0.0379168,0.0317992
1413393237855760384,-2.26375,2.8849,2.44924,0.0458545,0.806653,-0.10377,0.580034,0.197163,0.0766858,-0.0594176,0.00146966,0.0184285,0.0585935,-0.0668002,0.039947,0.0368738
1413393237905760512,-2.25409,2.88918,2.44745,0.0481035,0.808953,-0.101822,0.576986,0.189599,0.050944,-0.035421,0.00148983,0.0184719,0.0586152,-0.0705726,0.0347263,0.0501731
1413393237955760384,-2.24467,2.89185,2.4449,0.0507935,0.810458,-0.100041,0.574952,0.180999,0.0239496,-0.0465111,0.0015194,0.0184973,0.0586181,-0.0753204,0.0296667,0.067609
1413393238005760512,-2.23461,2.89278,2.44048,0.0578767,0.814416,-0.0953585,0.569459,0.182213,0.00803843,-0.04995,0.00152182,0.0185414,0.0585969,-0.078028,0.0257418,0.0914809
1413393238055760384,-2.22403,2.89309,2.43724,0.0647099,0.817455,-0.0911675,0.565039,0.203425,0.00483698,-0.0318593,0.00155325,0.018556,0.0585835,-0.0747617,0.0262401,0.104492
1413393238105760512,-2.21343,2.89304,2.4347,0.0697716,0.820134,-0.0886248,0.560944,0.220805,-0.00272756,-0.0268832,0.0015811,0.0185717,0.0585697,-0.0738142,0.0240269,0.107049
1413393238155760384,-2.2019,2.89336,2.43417,0.0753872,0.820919,-0.0867066,0.559367,0.233731,-0.00737818,0.00272254,0.00162498,0.0185903,0.0585984,-0.0701564,0.024954,0.105293
1413393238205760512,-2.18934,2.89328,2.43526,0.0797198,0.821684,-0.0860259,0.557746,0.266382,0.0106055,0.015321,0.00166354,0.0186177,0.0586169,-0.073335,0.0195691,0.104019
1413393238255760384,-2.17745,2.89683,2.4394,0.0837216,0.821835,-0.0852794,0.55705,0.27075,0.0292905,0.0714206,0.00171854,0.0186774,0.0586905,-0.0742441,0.00757656,0.10023
1413393238305760512,-2.16277,2.89941,2.43408,0.0872992,0.821827,-0.0861449,0.556379,0.30537,0.0367741,0.136321,0.00177449,0.0187188,0.0587663,-0.0775219,-0.00398281,0.0879498
1413393238355760384,-2.14527,2.90324,2.4379,0.0851749,0.822286,-0.0844597,0.556289,0.344244,0.0681374,0.169584,0.00154198,0.0186786,0.058871,-0.0829832,0.0062766,0.0789729
1413393238405760512,-2.12975,2.91104,2.4546,0.0889622,0.8213,-0.087801,0.556635,0.390716,0.0793387,0.235673,0.00174376,0.0188458,0.0589348,-0.0865044,-0.0360065,0.0754163
1413393238455760384,-2.10997,2.91789,2.47924,0.0867503,0.819461,-0.0910812,0.559163,0.413594,0.0967495,0.263269,0.00174237,0.0188786,0.0590062,-0.0844087,-0.0468277,0.0675426
1413393238505760512,-2.08774,2.91785,2.48881,0.0787044,0.817712,-0.0962524,0.562039,0.431369,0.107552,0.232066,0.00162709,0.0187896,0.059053,-0.0870422,-0.0243934,0.0593538
1413393238555760384,-2.06788,2.92664,2.50304,0.0733608,0.814271,-0.104557,0.566259,0.436895,0.111234,0.177184,0.00172356,0.0188873,0.0590976,-0.0906905,-0.0475853,0.0571753
1413393238605760512,-2.04543,2.93206,2.51027,0.0650132,0.811219,-0.111508,0.570318,0.451975,0.0958917,0.11884,0.00167912,0.0189034,0.0591353,-0.0909148,-0.0520642,0.0572002
1413393238655760384,-2.0231,2.93678,2.51658,0.0573097,0.808878,-0.118415,0.573071,0.457614,0.0723813,0.0743251,0.0016645,0.0189195,0.0591621,-0.0909815,-0.0533174,0.0553396
1413393238705760512,-1.99981,2.94002,2.51759,0.0516011,0.806971,-0.123696,0.575182,0.456985,0.0461559,0.00829317,0.00164298,0.0189264,0.0592031,-0.092468,-0.0551033,0.0495504
1413393238755760384,-1.97753,2.9411,2.51983,0.0472393,0.805445,-0.127795,0.576797,0.452762,0.00652591,-0.0306861,0.00163411,0.0189392,0.0592384,-0.0898011,-0.049462,0.0439839
1413393238805760512,-1.95528,2.94055,2.51742,0.0463639,0.804292,-0.129251,0.578152,0.448925,-0.0311791,-0.0425781,0.00162515,0.0189415,0.0592589,-0.0886653,-0.0514452,0.0383442
1413393238855760384,-1.93299,2.93784,2.5155,0.0485822,0.804155,-0.128492,0.578329,0.438116,-0.0784025,-0.0309538,0.00160123,0.0189539,0.0593039,-0.0880997,-0.0508376,0.0435438
1413393238905760512,-1.91156,2.93295,2.51383,0.0536474,0.804446,-0.12585,0.578057,0.437661,-0.121408,-0.0155768,0.00158834,0.0189597,0.0593423,-0.0900939,-0.0520806,0.0374913
1413393238955760384,-1.89108,2.92626,2.5141,0.0619557,0.805255,-0.120507,0.577239,0.421445,-0.153067,0.0040935,0.00158727,0.0189846,0.0593877,-0.093195,-0.0536038,0.0263042
1413393239005760512,-1.87041,2.91873,2.51348,0.0714412,0.805678,-0.114796,0.576716,0.414569,-0.176786,0.0235944,0.00157708,0.0190407,0.0594472,-0.095883,-0.0554932,0.0237735
1413393239055760384,-1.84972,2.91054,2.51359,0.0795346,0.806653,-0.109188,0.575381,0.424581,-0.162498,0.0200733,0.00158848,0.0190559,0.0594984,-0.0924412,-0.0591261,0.0191574
1413393239105760512,-1.82935,2.90233,2.51512,0.0863211,0.806905,-0.105367,0.574762,0.42003,-0.176132,0.00831433,0.00159001,0.0190729,0.0595073,-0.0920117,-0.0627231,0.0179138
1413393239155760384,-1.80824,2.89447,2.5165,0.0914459,0.807086,-0.102671,0.574202,0.430835,-0.159087,0.0287926,0.00158931,0.0190801,0.0595387,-0.0819276,-0.0695771,0.0143514
1413393239205760512,-1.78693,2.88736,2.5188,0.0955663,0.807799,-0.0999297,0.573011,0.445105,-0.136572,0.0099739,0.00162157,0.0190974,0.0595574,-0.0846969,-0.0711224,0.0182087
1413393239255760384,-1.76526,2.88076,2.52096,0.0978903,0.807411,-0.0995831,0.573226,0.442672,-0.139939,0.0160567,0.00163807,0.0191304,0.0596057,-0.0864591,-0.0749589,0.0199539
1413393239305760512,-1.74278,2.87455,2.52211,0.100433,0.80775,-0.0988733,0.572431,0.458437,-0.112809,0.0232158,0.00164694,0.0191499,0.0596444,-0.0843745,-0.0781131,0.0167267
1413393239355760384,-1.71966,2.86943,2.52347,0.101201,0.808475,-0.0982211,0.571384,0.467856,-0.0908756,0.0323215,0.00166303,0.0191496,0.0596724,-0.0841477,-0.0773868,0.014051
1413393239405760512,-1.69606,2.86501,2.52478,0.101744,0.80864,-0.0986735,0.570976,0.475756,-0.0807564,0.0358483,0.00165614,0.0191823,0.0597205,-0.0875847,-0.0810217,0.00986499
1413393239455760384,-1.67184,2.86184,2.52737,0.101231,0.809246,-0.0994591,0.570071,0.485664,-0.0495666,0.0415164,0.00166514,0.0191872,0.0597778,-0.0896041,-0.082706,0.0033052
1413393239505760512,-1.64728,2.85975,2.53175,0.103508,0.809478,-0.0978932,0.569604,0.496902,-0.0364256,0.0736905,0.00167488,0.0192051,0.059797,-0.0890503,-0.0828118,0.00434561
1413393239555760384,-1.62204,2.85881,2.53542,0.101365,0.809759,-0.0995634,0.5693,0.503669,-0.0132798,0.0754838,0.00167371,0.0192232,0.0598133,-0.0850522,-0.0857383,-0.00414576
1413393239605760512,-1.59628,2.85915,2.53946,0.0972532,0.810154,-0.101477,0.569118,0.518726,0.0196901,0.0856952,0.00167372,0.0192214,0.0598323,-0.0800841,-0.0868261,-0.000569145
1413393239655760384,-1.56995,2.86034,2.54422,0.0900404,0.809649,-0.106115,0.570176,0.527409,0.0220485,0.107852,0.00166906,0.0192241,0.059837,-0.0784535,-0.0865618,-0.00174756
1413393239705760512,-1.54304,2.86149,2.54873,0.0794806,0.808926,-0.113335,0.571382,0.533901,0.0159412,0.107396,0.00165784,0.0192277,0.0598582,-0.0747892,-0.0843806,-0.0039726
1413393239755760384,-1.51605,2.86222,2.55455,0.0707155,0.808001,-0.118588,0.572775,0.544461,0.00919588,0.100256,0.00163839,0.0192127,0.0598901,-0.0766205,-0.0841588,0.00019495
1413393239805760512,-1.48879,2.86192,2.56101,0.0649577,0.807584,-0.122089,0.573308,0.545689,-0.0283417,0.105484,0.00160617,0.0192201,0.0599308,-0.0795962,-0.0845761,-0.00484978
1413393239855760384,-1.46146,2.85968,2.56608,0.0616133,0.808264,-0.124289,0.572246,0.544878,-0.0484113,0.0802102,0.00158972,0.0191922,0.0599387,-0.0819277,-0.0711546,-0.0059805
1413393239905760512,-1.43405,2.85582,2.57065,0.0627517,0.808908,-0.123105,0.571467,0.549381,-0.0742595,0.0943775,0.00158398,0.0191313,0.0599853,-0.0806375,-0.0532037,-0.0172094
1413393239955760384,-1.40621,2.85069,2.57327,0.0638134,0.808957,-0.122273,0.57146,0.556031,-0.10314,0.103029,0.00158325,0.0190548,0.0599881,-0.07141,-0.0384556,-0.0270535
1413393240005760512,-1.37872,2.84425,2.5767,0.0674478,0.808263,-0.119515,0.572606,0.561441,-0.124984,0.0995265,0.00158097,0.0190093,0.0600403,-0.0751364,-0.0276436,-0.0393765
1413393240055760384,-1.35094,2.8374,2.5809,0.0722763,0.807843,-0.115665,0.573401,0.558242,-0.13974,0.108147,0.00156136,0.0189464,0.0600622,-0.0713152,-0.0275467,-0.0471104
1413393240105760512,-1.32311,2.83018,2.58697,0.0795699,0.806833,-0.110328,0.574907,0.556068,-0.153464,0.119306,0.00155868,0.0189676,0.0600962,-0.0784986,-0.0236104,-0.0406501
1413393240155760384,-1.29545,2.82265,2.59262,0.0856908,0.806086,-0.105453,0.575989,0.559916,-0.140569,0.0854926,0.00155541,0.0189194,0.0601204,-0.0747458,-0.0208878,-0.041763
1413393240205760512,-1.26798,2.81577,2.60009,0.0897323,0.805181,-0.10187,0.577282,0.549998,-0.125906,0.0412168,0.00155972,0.0188861,0.0601289,-0.0778526,-0.0145696,-0.0383582
1413393240255760384,-1.24053,2.80956,2.60281,0.0927094,0.805636,-0.0992905,0.576626,0.550931,-0.114469,-0.0130214,0.00156087,0.0188938,0.0601646,-0.0783182,-0.0147514,-0.0259999
1413393240305760512,-1.21269,2.80403,2.60031,0.0917891,0.805667,-0.0997364,0.576653,0.557204,-0.0945159,-0.0686462,0.00155801,0.0189362,0.0601996,-0.0682413,-0.0146251,-0.0175317
1413393240355760384,-1.18485,2.79916,2.5951,0.0899803,0.805421,-0.100606,0.57713,0.563068,-0.0860557,-0.121154,0.00154657,0.0189257,0.0602134,-0.0558879,-0.0180207,-0.0109196
1413393240405760512,-1.15632,2.79455,2.58691,0.0853128,0.804827,-0.103829,0.578095,0.57975,-0.0820006,-0.162147,0.00152702,0.0189153,0.0602094,-0.0403931,-0.0155413,-0.00383845
1413393240455760384,-1.12757,2.79054,2.57925,0.0811736,0.803782,-0.106346,0.579686,0.575076,-0.0825329,-0.205573,0.00152484,0.0189149,0.0602697,-0.0345834,-0.0133415,-0.0118109
1413393240505760512,-1.09926,2.78627,2.56647,0.0752544,0.803028,-0.110577,0.580737,0.554949,-0.0792494,-0.220321,0.00152398,0.0188969,0.0602646,-0.0277928,-0.0114339,-0.00352836
1413393240555760384,-1.07179,2.78214,2.55747,0.0709592,0.801987,-0.113823,0.582087,0.536287,-0.0807697,-0.185451,0.0015076,0.0188969,0.0602966,-0.0331785,-0.0129762,-0.00809856
1413393240605760512,-1.04554,2.77794,2.55052,0.0675207,0.801169,-0.116634,0.583066,0.507959,-0.0872675,-0.139475,0.00150763,0.0189003,0.0603232,-0.0383104,-0.0102623,-0.00650761
1413393240655760384,-1.01979,2.77314,2.5454,0.0665577,0.800874,-0.118152,0.583276,0.527939,-0.112104,-0.0785324,0.00150046,0.0189421,0.0603601,-0.0489664,-0.00687805,-0.01266
1413393240705760512,-0.992918,2.76698,2.54535,0.0675886,0.800968,-0.118816,0.582894,0.546554,-0.138983,0.0643819,0.00149384,0.0189551,0.060372,-0.0566608,-0.00832454,-0.0111731
1413393240755760384,-0.965744,2.75989,2.55121,0.0717438,0.80028,-0.117598,0.583588,0.537004,-0.145975,0.12251,0.00148784,0.0189564,0.0604034,-0.0632923,-0.00812021,-0.0099271
1413393240805760512,-0.939222,2.75229,2.55848,0.0762462,0.798924,-0.116219,0.58515,0.533286,-0.156907,0.14894,0.00148923,0.0189743,0.0604253,-0.0732505,-0.00965035,-0.0136824
1413393240855760384,-0.912962,2.74463,2.56569,0.0819274,0.797713,-0.113703,0.586527,0.523774,-0.150364,0.121606,0.00149432,0.0189894,0.0604439,-0.0773119,-0.00446412,-0.011588
1413393240905760512,-0.887047,2.73685,2.57065,0.0856869,0.795193,-0.112607,0.589614,0.504796,-0.155401,0.0667716,0.00148854,0.0190202,0.0604813,-0.0823002,-0.00452104,-0.0144723
1413393240955760384,-0.862604,2.72963,2.57233,0.0891687,0.792441,-0.112323,0.592849,0.473083,-0.140921,-0.0010901,0.0014935,0.0190221,0.0605071,-0.0855187,-0.00411047,-0.0154243
1413393241005760512,-0.839072,2.72303,2.5708,0.0919028,0.789787,-0.111892,0.596046,0.468687,-0.130062,-0.0533401,0.00148674,0.0190057,0.0605482,-0.0862843,-0.000812557,-0.0148915
1413393241055760384,-0.815789,2.71678,2.56639,0.0925169,0.787341,-0.113118,0.598948,0.456717,-0.129054,-0.106138,0.00147031,0.0190109,0.0605817,-0.0918135,-0.00109438,-0.0109648
1413393241105760512,-0.793252,2.71092,2.55921,0.0900529,0.78621,-0.116415,0.600177,0.441287,-0.113846,-0.174859,0.00147015,0.019029,0.0605956,-0.0919813,0.000998559,-0.00676886
1413393241155760384,-0.771987,2.70532,2.54941,0.0855098,0.785527,-0.121489,0.60073,0.411886,-0.109366,-0.230284,0.00146308,0.019036,0.0606297,-0.0899221,0.00122214,-0.0116121
1413393241205760512,-0.75175,2.69991,2.53712,0.0806975,0.785629,-0.126149,0.600301,0.396219,-0.107872,-0.253075,0.00144197,0.0190267,0.0606402,-0.0904254,0.000647771,-0.00179227
1413393241255760384,-0.732653,2.69436,2.52476,0.0764595,0.786291,-0.13082,0.598988,0.369715,-0.114151,-0.257131,0.00144984,0.0190366,0.0606578,-0.0906888,0.00596315,-0.00919189
1413393241305760512,-0.714727,2.6884,2.51238,0.0731731,0.788173,-0.134784,0.596039,0.348977,-0.128581,-0.238434,0.00144134,0.019044,0.0606745,-0.0903408,0.00604891,-0.0114714
1413393241355760384,-0.697813,2.6817,2.50069,0.0725653,0.793222,-0.137072,0.588851,0.327355,-0.137743,-0.231953,0.00143425,0.019067,0.0606876,-0.0889218,0.00843544,-0.0182784
1413393241405760512,-0.68163,2.67427,2.48936,0.0719071,0.796616,-0.139077,0.583858,0.314177,-0.159187,-0.218694,0.00143577,0.0190715,0.0607344,-0.0868151,0.00926635,-0.0182699
1413393241455760384,-0.6661,2.66573,2.47957,0.0744636,0.799246,-0.139014,0.579945,0.304772,-0.180812,-0.182933,0.00142894,0.019059,0.0607449,-0.0836551,0.0106208,-0.0229317
1413393241505760512,-0.650793,2.65652,2.47096,0.0788811,0.800757,-0.136757,0.577809,0.302167,-0.184411,-0.147933,0.00142316,0.0190682,0.0607772,-0.0800053,0.0154538,-0.0257863
1413393241555760384,-0.635419,2.64682,2.46307,0.0841079,0.800639,-0.134011,0.57788,0.303393,-0.20666,-0.143851,0.00142366,0.0190766,0.0607855,-0.078245,0.0146497,-0.0222012
1413393241605760512,-0.620105,2.63638,2.45509,0.0901902,0.799377,-0.130501,0.579511,0.308093,-0.205355,-0.143592,0.00140954,0.0190769,0.0608162,-0.0770922,0.0126838,-0.0232993
1413393241655760384,-0.604703,2.62642,2.44819,0.094544,0.798518,-0.127311,0.580709,0.308292,-0.193607,-0.133726,0.00140715,0.0190943,0.0608454,-0.0798138,0.0101594,-0.0191669
1413393241705760512,-0.589276,2.61664,2.44153,0.0992113,0.797439,-0.124031,0.582121,0.308054,-0.193933,-0.138642,0.0014059,0.0190932,0.060868,-0.0822078,0.0120864,-0.0166664
1413393241755760384,-0.573686,2.60734,2.43404,0.101318,0.797335,-0.122727,0.582177,0.310138,-0.184168,-0.130895,0.00140104,0.0190993,0.0608944,-0.0813526,0.0140244,-0.0152601
1413393241805760512,-0.558026,2.59862,2.42758,0.103164,0.798325,-0.120906,0.580875,0.311918,-0.161417,-0.13411,0.00140328,0.0191015,0.060924,-0.0783988,0.0132475,-0.01481
1413393241855760384,-0.542296,2.59084,2.42109,0.104209,0.799156,-0.119281,0.579881,0.315013,-0.15339,-0.126284,0.00140248,0.0191314,0.0609302,-0.0835883,0.0140853,-0.0160336
1413393241905760512,-0.526401,2.58403,2.41581,0.104854,0.798339,-0.118399,0.58107,0.314172,-0.131768,-0.0848679,0.00138504,0.0191682,0.0609541,-0.0844426,0.0151514,-0.0168202
1413393241955760384,-0.510687,2.57823,2.41205,0.105574,0.796385,-0.11604,0.584089,0.31149,-0.101445,-0.0844468,0.00137674,0.0191713,0.0609682,-0.0828267,0.0118907,-0.0228239
1413393242005760512,-0.495201,2.57351,2.40747,0.105257,0.794866,-0.11487,0.586442,0.306978,-0.0920245,-0.0835297,0.00136586,0.0191939,0.0609892,-0.0821306,0.0122693,-0.0272347
1413393242055760384,-0.48003,2.56987,2.40378,0.105403,0.792279,-0.112976,0.590272,0.301035,-0.055845,-0.0604299,0.00135277,0.0192077,0.0610107,-0.0816404,0.013559,-0.0348641
1413393242105760512,-0.46539,2.56744,2.40035,0.105375,0.790135,-0.110789,0.593556,0.287508,-0.0351244,-0.0513376,0.00136342,0.0192137,0.0610447,-0.0826235,0.0164184,-0.0360143
1413393242155760384,-0.45158,2.56621,2.39768,0.10338,0.786537,-0.110811,0.598659,0.267861,-0.0204005,-0.0425129,0.00135639,0.01921,0.061082,-0.0834462,0.0169757,-0.0402813
1413393242205760512,-0.43878,2.56613,2.396,0.100453,0.782496,-0.11112,0.604369,0.244387,0.017612,-0.0300082,0.00135184,0.0192024,0.0610993,-0.0871228,0.0196897,-0.0376808
1413393242255760384,-0.42731,2.56674,2.39469,0.0988357,0.779935,-0.110748,0.608003,0.214167,0.0229819,-0.0241603,0.00134828,0.0192131,0.0611205,-0.0903131,0.019222,-0.0359343
1413393242305760512,-0.417241,2.56821,2.39347,0.0964462,0.778699,-0.111906,0.609757,0.182572,0.0355437,-0.0209513,0.00134467,0.0191929,0.0611406,-0.0915229,0.0244695,-0.0360822
1413393242355760384,-0.408636,2.57074,2.39211,0.092238,0.779644,-0.113807,0.608847,0.162888,0.0602099,-0.0339705,0.00134228,0.0192045,0.0611728,-0.0931488,0.0259934,-0.0374407
1413393242405760512,-0.401344,2.57386,2.39068,0.0859791,0.782512,-0.117354,0.605402,0.130653,0.0677898,-0.0280911,0.00134281,0.0192226,0.0612207,-0.0927491,0.0275801,-0.0376777
1413393242455760384,-0.395258,2.57739,2.38902,0.0786684,0.787149,-0.121916,0.599453,0.108166,0.0714811,-0.0242337,0.00133592,0.0192399,0.0612485,-0.0912651,0.0292019,-0.0359849
1413393242505760512,-0.39037,2.58087,2.3879,0.0705079,0.792666,-0.1272,0.592056,0.0864162,0.0681995,-0.0314759,0.001338,0.0192368,0.0612656,-0.0909513,0.0299391,-0.0377091
1413393242555760384,-0.386372,2.58367,2.38715,0.064346,0.797636,-0.130995,0.585216,0.0754055,0.0462396,0.000554654,0.00130938,0.0192539,0.0612812,-0.0935484,0.0278263,-0.0369004
1413393242605760512,-0.382887,2.58554,2.38724,0.0598025,0.801472,-0.133945,0.579764,0.065776,0.0185836,0.0106387,0.00130169,0.0192607,0.0613094,-0.0947267,0.0276968,-0.0346418
1413393242655760384,-0.37918,2.58624,2.38762,0.0575658,0.804211,-0.135018,0.575935,0.072691,-0.00281665,0.0337577,0.00128856,0.0192803,0.0613197,-0.0950154,0.0215612,-0.027928
1413393242705760512,-0.375402,2.58577,2.38829,0.055377,0.805021,-0.136447,0.57468,0.0768267,-0.04331,0.0365363,0.00123094,0.0192959,0.0613292,-0.0980752,0.0140734,-0.0265744
1413393242755760384,-0.371234,2.58402,2.39034,0.0516004,0.804682,-0.13767,0.575214,0.0811014,-0.0653151,0.0657106,0.00121142,0.0193137,0.0613354,-0.099511,0.00558575,-0.0278899
1413393242805760512,-0.36675,2.5804,2.39401,0.0503054,0.804212,-0.135945,0.576395,0.085935,-0.106613,0.0692285,0.00119332,0.0193196,0.0613552,-0.101002,0.00271778,-0.0303125
1413393242855760384,-0.362059,2.57503,2.39819,0.0507649,0.804171,-0.131098,0.577534,0.0893321,-0.138855,0.0899395,0.00115615,0.0193282,0.0613762,-0.102434,0.00340161,-0.0314572
1413393242905760512,-0.35714,2.56795,2.403,0.0561316,0.804977,-0.120723,0.578176,0.09716,-0.15771,0.081592,0.00114821,0.0193321,0.0614147,-0.10123,0.00373921,-0.0336207
1413393242955760384,-0.352239,2.5596,2.40741,0.0596308,0.807157,-0.110955,0.576741,0.0925037,-0.189991,0.101664,0.00114051,0.0193471,0.0614479,-0.103531,0.0103009,-0.0314892
1413393243005760512,-0.347285,2.55049,2.41295,0.0613216,0.809961,-0.100639,0.574521,0.105813,-0.187725,0.105984,0.0011433,0.0193461,0.0614872,-0.0997447,0.019503,-0.0341112
1413393243055760384,-0.341736,2.54082,2.41882,0.0608544,0.812506,-0.0893232,0.572846,0.118151,-0.193125,0.0967384,0.00114761,0.0193486,0.0615191,-0.0953276,0.0223885,-0.0352123
1413393243105760512,-0.335438,2.5311,2.42523,0.0582939,0.815112,-0.0787646,0.570956,0.134053,-0.202693,0.112789,0.00113932,0.0193502,0.0615383,-0.094222,0.0257162,-0.0353815
1413393243155760384,-0.328235,2.52149,2.43259,0.0526439,0.816207,-0.0681119,0.57131,0.15651,-0.179299,0.132889,0.00114934,0.0193488,0.0615775,-0.093583,0.0325027,-0.0348053
1413393243205760512,-0.320041,2.51268,2.43977,0.0464931,0.814844,-0.0568356,0.575011,0.172469,-0.173398,0.15735,0.00113733,0.0193701,0.0615934,-0.0919302,0.0332538,-0.0360174
1413393243255760384,-0.311401,2.50402,2.44806,0.0415811,0.81104,-0.0470183,0.581614,0.176815,-0.185314,0.155562,0.00113905,0.0193683,0.0616303,-0.0907007,0.0363846,-0.0377287
1413393243305760512,-0.302354,2.49577,2.4548,0.0371203,0.806958,-0.0376648,0.588237,0.181715,-0.155287,0.104167,0.00113714,0.0193687,0.0616482,-0.08737,0.0353569,-0.0398784
1413393243355760384,-0.293179,2.48805,2.45871,0.0317393,0.803737,-0.0306073,0.593349,0.177302,-0.164965,0.0519724,0.0011223,0.0193775,0.0616813,-0.0868766,0.0386596,-0.0374355
1413393243405760512,-0.284573,2.4808,2.46044,0.0279961,0.800472,-0.0247073,0.598206,0.161774,-0.156318,0.0031561,0.00110396,0.0193764,0.061698,-0.0880307,0.0409931,-0.040138
1413393243455760384,-0.276694,2.47397,2.45926,0.0240425,0.798553,-0.0194351,0.601131,0.148668,-0.134771,-0.035357,0.00109491,0.0193667,0.0617409,-0.0915151,0.0434308,-0.0395836
1413393243505760512,-0.269412,2.46765,2.45601,0.0205756,0.796938,-0.0152721,0.603517,0.131458,-0.131568,-0.0995922,0.00107555,0.0193718,0.0617711,-0.0914744,0.0457737,-0.0408755
1413393243555760384,-0.262773,2.46193,2.44943,0.0171754,0.796203,-0.0120363,0.604666,0.111239,-0.124776,-0.141108,0.00105786,0.019382,0.0618078,-0.0919953,0.0446555,-0.0383263
1413393243605760512,-0.257185,2.45637,2.4413,0.0150368,0.796322,-0.00909144,0.604618,0.0944903,-0.117927,-0.147847,0.00104207,0.0194124,0.0618251,-0.0894717,0.0439718,-0.0358959
1413393243655760384,-0.252676,2.4511,2.43312,0.0135401,0.796891,-0.00663932,0.603935,0.0721517,-0.10713,-0.156211,0.00102595,0.0193901,0.0618495,-0.0886071,0.045133,-0.0297326
1413393243705760512,-0.249543,2.44626,2.42586,0.0129155,0.798315,-0.00425069,0.602087,0.0536328,-0.0904546,-0.123454,0.0010152,0.0194117,0.061873,-0.0882666,0.0477256,-0.0293046
1413393243755760384,-0.247614,2.44175,2.41962,0.0121509,0.799957,-0.00295177,0.599927,0.0284926,-0.0854584,-0.110963,0.00100478,0.0194126,0.0619,-0.0883975,0.0502859,-0.0313621
1413393243805760512,-0.2465,2.43773,2.41473,0.0123709,0.801589,-0.00144452,0.597746,0.00547723,-0.0748746,-0.0804022,0.00100179,0.0194245,0.0619267,-0.088596,0.051872,-0.0292036
1413393243855760384,-0.246488,2.43417,2.41051,0.0108269,0.802304,-0.00132143,0.596816,-0.00773904,-0.0597592,-0.0697757,0.000989034,0.019424,0.0619542,-0.0868679,0.0501495,-0.0257171
1413393243905760512,-0.247371,2.43111,2.40781,0.0112648,0.802716,-0.000406427,0.596256,-0.0222188,-0.056105,-0.0354252,0.000981764,0.019437,0.0619763,-0.0857066,0.0482177,-0.0243179
1413393243955760384,-0.248612,2.42857,2.40584,0.0110933,0.802767,0.000182405,0.596189,-0.0361041,-0.0439967,-0.0253384,0.00098063,0.0194402,0.0619942,-0.0847939,0.0469073,-0.0203818
1413393244005760512,-0.250647,2.42649,2.40487,0.0110623,0.803102,0.000562464,0.595739,-0.0445618,-0.0324901,-0.0201994,0.000955601,0.0194427,0.0620106,-0.0815387,0.0477145,-0.0176886
1413393244055760384,-0.253296,2.425,2.40483,0.0124782,0.802813,0.00132307,0.596099,-0.0544071,-0.0209077,7.90052e-05,0.000966898,0.0194433,0.0620469,-0.0810102,0.0471566,-0.023786
1413393244105760512,-0.256688,2.4242,2.40514,0.0135242,0.803072,0.00192709,0.595726,-0.0683908,-0.0053273,0.0222195,0.000968515,0.0194492,0.0620809,-0.0839153,0.0446494,-0.0280447
1413393244155760384,-0.260382,2.42437,2.40629,0.0139397,0.803377,0.00331556,0.595298,-0.0852736,0.0121123,0.00393809,0.000955267,0.0194677,0.0621029,-0.0851162,0.034741,-0.0309059
1413393244205760512,-0.264799,2.42577,2.40728,0.0119349,0.803383,0.00566859,0.595317,-0.091104,0.0410625,0.00745707,0.000951454,0.0194734,0.0621344,-0.0854272,0.0284798,-0.0349476
1413393244255760384,-0.269687,2.42823,2.40755,0.00953444,0.803908,0.0101735,0.594591,-0.102903,0.0573831,0.0124415,0.000942368,0.0194631,0.0621606,-0.0850552,0.0276206,-0.0376171
1413393244305760512,-0.275006,2.4323,2.4083,0.00653865,0.804578,0.016157,0.593592,-0.11236,0.0786705,0.0245201,0.000927398,0.0194741,0.0621783,-0.0937325,0.0245023,-0.0415209
1413393244355760384,-0.280761,2.43712,2.40927,0.00186992,0.80512,0.0229711,0.592664,-0.114602,0.106017,0.00956644,0.000916464,0.0194857,0.0622054,-0.10716,0.0222317,-0.0446506
1413393244405760512,-0.286695,2.44214,2.41013,-0.00297003,0.804169,0.0284241,0.593713,-0.117506,0.097827,-0.0282247,0.000928024,0.0194846,0.0622444,-0.119421,0.0286487,-0.0459118
1413393244455760384,-0.293367,2.44725,2.40943,-0.00848943,0.802688,0.0324255,0.595457,-0.132451,0.110185,-0.0694703,0.000937682,0.0194814,0.0622685,-0.123754,0.0316481,-0.0478475
1413393244505760512,-0.300803,2.45165,2.4012,-0.0143721,0.801843,0.0354914,0.596307,-0.141755,0.116012,-0.129162,0.000949612,0.0194592,0.0622972,-0.121493,0.0448241,-0.0409988
1413393244555760384,-0.308451,2.45613,2.39284,-0.0196025,0.800721,0.0376203,0.597534,-0.15361,0.100325,-0.190746,0.000960322,0.0194526,0.0623197,-0.121713,0.0503829,-0.0371069
1413393244605760512,-0.316096,2.46117,2.38365,-0.0242909,0.800956,0.0397844,0.596906,-0.153829,0.110532,-0.217654,0.000955488,0.0194426,0.0623349,-0.120517,0.0513112,-0.0346222
1413393244655760384,-0.323965,2.46667,2.37417,-0.0286413,0.801316,0.0416333,0.596103,-0.150817,0.110998,-0.182461,0.000948665,0.0194512,0.0623577,-0.118166,0.0553688,-0.0318739
1413393244705760512,-0.33234,2.47249,2.36772,-0.031613,0.800741,0.0436913,0.596578,-0.194439,0.106493,-0.111053,0.000946179,0.0194694,0.0623707,-0.116741,0.0528826,-0.0334498
1413393244755760384,-0.342725,2.47804,2.36076,-0.0367752,0.801469,0.0431522,0.595343,-0.215281,0.102738,-0.0995068,0.000940669,0.0194799,0.0624081,-0.113756,0.0543846,-0.0323534
1413393244805760512,-0.353592,2.48355,2.35772,-0.0421138,0.801362,0.0420623,0.595211,-0.222743,0.100659,-0.0321066,0.000931642,0.0194836,0.0624345,-0.110251,0.0533909,-0.0332919
1413393244855760384,-0.365204,2.4886,2.35815,-0.0459621,0.802111,0.0413595,0.593966,-0.246072,0.0965759,0.0566292,0.000919438,0.0194868,0.0624618,-0.106179,0.0542963,-0.0282948
1413393244905760512,-0.376423,2.49339,2.36486,-0.0486252,0.802019,0.0404289,0.593942,-0.224345,0.0760354,0.145341,0.000902915,0.0194847,0.0624846,-0.104818,0.051834,-0.0254214
1413393244955760384,-0.387557,2.49724,2.37465,-0.0489662,0.801865,0.0407154,0.594102,-0.246124,0.0614985,0.211196,0.000896394,0.019492,0.0625042,-0.105403,0.0557133,-0.0231499
1413393245005760512,-0.400099,2.50032,2.38354,-0.0464684,0.80341,0.0425293,0.592085,-0.255118,0.0413584,0.194728,0.000884355,0.0195091,0.0625359,-0.104373,0.0529633,-0.023029
1413393245055760384,-0.412902,2.50251,2.39178,-0.044528,0.805747,0.0431539,0.589005,-0.262714,0.0309132,0.158822,0.000873061,0.0195092,0.0625682,-0.102583,0.0505095,-0.0231662
1413393245105760512,-0.42586,2.50425,2.39849,-0.0420024,0.808478,0.0445395,0.585334,-0.260641,0.0256158,0.103114,0.000868541,0.0195067,0.0625962,-0.102975,0.0441975,-0.0226773
1413393245155760384,-0.438499,2.50552,2.40313,-0.040436,0.811568,0.0445572,0.581152,-0.252093,0.0108979,0.0541151,0.000859821,0.0195503,0.0626195,-0.106239,0.0363242,-0.0291523
1413393245205760512,-0.451035,2.50561,2.40402,-0.0388527,0.814532,0.0447688,0.577082,-0.246798,0.0025913,0.0101772,0.000846408,0.0195341,0.0626443,-0.104211,0.0379616,-0.0318593
1413393245255760384,-0.462941,2.50568,2.40279,-0.0369268,0.815763,0.045834,0.575384,-0.240464,-0.00622961,-0.0442311,0.000841328,0.0195138,0.0626826,-0.103194,0.0451265,-0.028356
1413393245305760512,-0.474467,2.50542,2.3993,-0.0349381,0.816443,0.0466387,0.574478,-0.22266,-0.00241494,-0.100742,0.000832244,0.0195071,0.0627058,-0.102456,0.0483557,-0.0319653
1413393245355760384,-0.485146,2.50535,2.39542,-0.0323464,0.81592,0.0480829,0.575254,-0.209087,0.00373999,-0.140918,0.00083057,0.019495,0.0627301,-0.099031,0.0496737,-0.0349593
1413393245405760512,-0.495287,2.50522,2.38872,-0.0302698,0.81493,0.0489061,0.576699,-0.187359,-0.00450516,-0.172134,0.000838071,0.0194895,0.062758,-0.100329,0.0495504,-0.0434199
1413393245455760384,-0.50485,2.50512,2.37959,-0.027714,0.813384,0.050241,0.578891,-0.184988,-0.000368632,-0.212909,0.000839339,0.0194673,0.0627925,-0.0999526,0.0495849,-0.0524182
1413393245505760512,-0.514577,2.5051,2.36898,-0.0255331,0.811648,0.0514132,0.58132,-0.175692,0.00773655,-0.237952,0.000839172,0.0194588,0.0628285,-0.106135,0.0465466,-0.0612268
1413393245555760384,-0.537488,2.50786,2.30957,-0.0221623,0.799507,0.053118,0.597894,-0.163801,0.00479215,-0.240821,0.00100683,0.018807,0.0634236,-0.2093,0.0209168,-0.374462
1413393245605760512,-0.561003,2.51553,2.26329,-0.017169,0.788251,0.0561866,0.612543,-0.151901,0.0157518,-0.244365,0.00117414,0.0183366,0.0640551,-0.294193,-0.0499206,-0.660144
1413393245655760384,-0.558793,2.51004,2.26608,-0.0176372,0.792846,0.0543088,0.606742,-0.160993,0.0347317,-0.231058,0.00105207,0.0186058,0.0636506,-0.23568,0.01077,-0.474446
1413393245705760512,-0.567194,2.51204,2.25436,-0.0146976,0.7915,0.0547874,0.608531,-0.159686,0.0462451,-0.208952,0.00105368,0.0185781,0.0637073,-0.237164,0.0132462,-0.48816
