#timestamp, p_RS_R_x [m], p_RS_R_y [m], p_RS_R_z [m], q_RS_w [], q_RS_x [], q_RS_y [], q_RS_z [], v_RS_R_x [m s^-1], v_RS_R_y [m s^-1], v_RS_R_z [m s^-1], b_w_RS_S_x [rad s^-1], b_w_RS_S_y [rad s^-1], b_w_RS_S_z [rad s^-1], b_a_RS_S_x [m s^-2], b_a_RS_S_y [m s^-2], b_a_RS_S_z [m s^-2]
1413393212255760384,-1.07611,0.492467,1.32991,0.603533,-0.00214432,-0.797325,0.00392407,-0.00589079,0.000519016,-0.0105229,-0.000148636,0.000786939,0.00314427,-1.27843e-06,1.23436e-05,-7.28076e-06
1413393212305760512,-1.13606,0.424449,1.25785,0.603517,-0.00242159,-0.797335,0.0043454,-0.00418831,-0.00286621,-0.00843057,-0.000145324,0.000910783,0.00353288,-9.09096e-06,1.87164e-05,-9.79616e-06
1413393212355760384,-1.10187,0.243098,1.19491,0.603389,-0.00174246,-0.797433,0.00453266,-0.00492427,-0.00325903,-0.00506179,-0.000159968,0.00104979,0.00394137,-2.71888e-05,2.62963e-05,-8.5285e-06
1413393212405760512,-1.23166,0.252631,1.15594,0.603106,-0.00213793,-0.797647,0.00424966,-0.00375629,-0.000851062,-0.00516923,-0.00015266,0.00117196,0.00431629,-4.19378e-05,3.06014e-05,-1.14899e-05
1413393212455760384,-1.38082,0.357035,1.13203,0.603143,-0.00379907,-0.79762,0.00274658,-0.00198914,-0.0041639,-0.00391678,-0.000156982,0.00127829,0.00464324,-5.65656e-05,3.33026e-05,-1.15165e-05
1413393212505760512,-1.406,0.34762,1.12394,0.603008,-0.00380983,-0.797721,0.00294012,-0.00127683,-0.00320243,-0.00183023,-0.000179161,0.00138095,0.00500496,-6.50246e-05,3.24177e-05,-1.6339e-05
1413393212555760384,-1.44897,0.356243,1.16032,0.602908,-0.0033906,-0.797798,0.00305342,-0.00110074,-0.00501033,-0.00445267,-0.000189839,0.00149923,0.00536796,-0.000102704,3.6226e-05,-7.3856e-06
1413393212605760512,-1.47465,0.338445,1.20259,0.602736,-0.00321147,-0.797928,0.00313517,-0.000967894,0.00251196,-0.00312032,-0.000196053,0.00161702,0.0057411,-0.000150185,3.76644e-05,4.12313e-08
1413393212655760384,-1.49947,0.325577,1.19014,0.602677,-0.00319234,-0.797973,0.00317859,-0.00164752,-0.000160536,-0.00367425,-0.000210266,0.0017214,0.00609554,-0.000181901,3.45153e-05,4.97736e-06
1413393212705760512,-1.44193,0.312794,1.24934,0.602544,-0.00301324,-0.798074,0.00312342,0.000905017,-0.00264274,-0.00508222,-0.000206987,0.00182366,0.00645137,-0.000180096,3.84178e-05,-1.21991e-05
1413393212755760384,-1.49609,0.313703,1.24512,0.602619,-0.00319899,-0.798018,0.00284543,0.000630721,0.00147432,-0.004256,-0.00021411,0.0019357,0.00683197,-0.00033074,3.90828e-05,4.32673e-05
1413393212805760512,-1.50328,0.333048,1.23642,0.602678,-0.00323171,-0.797973,0.0028056,0.000149509,-0.00197542,-0.00393458,-0.000230166,0.00203931,0.00718098,-0.000406838,4.289e-05,6.53975e-05
1413393212855760384,-1.50256,0.345567,1.23661,0.602643,-0.00347061,-0.798,0.00241423,0.000358144,0.000986766,-0.00412701,-0.000238352,0.00213393,0.00750366,-0.000438776,5.21179e-05,7.68302e-05
1413393212905760512,-1.55037,0.359015,1.17318,0.602759,-0.00355315,-0.797912,0.00231461,-0.00018126,0.000397095,-0.00409683,-0.000232539,0.00223373,0.00783991,-0.0006472,7.6773e-05,0.000175748
1413393212955760384,-1.53558,0.218767,1.21146,0.602704,-0.00437421,-0.797951,0.00187522,0.00114597,-0.00248596,-0.00392436,-0.000245416,0.00233453,0.00819233,-0.000899507,7.12028e-05,0.000255843
1413393213005760512,-1.54746,0.189918,1.25605,0.602662,-0.00782834,-0.797958,-0.000950163,0.00235513,0.000508958,-0.00254678,-0.000257389,0.00242644,0.00850451,-0.00101099,7.10886e-05,0.000298654
1413393213055760384,-1.53567,0.120293,1.23341,0.60282,-0.00607357,-0.797854,0.000497569,0.00340727,-0.000104306,-0.00298899,-0.000261336,0.00252747,0.00886864,-0.00139818,7.85583e-05,0.000387269
1413393213105760512,-1.52658,0.0732204,1.23605,0.602782,-0.0103754,-0.797834,-0.0027112,0.00220464,-0.000747966,-0.00640856,-0.000268368,0.00263444,0.0092183,-0.00197369,5.19861e-05,0.000557116
1413393213155760384,-1.53412,0.0800938,1.25967,0.602686,-0.0104289,-0.797905,-0.00279868,0.00158413,0.000685858,-0.00327274,-0.000279948,0.00274667,0.00955953,-0.00252794,5.4011e-05,0.000700191
1413393213205760512,-1.5378,0.0799995,1.25769,0.60272,-0.0101123,-0.797885,-0.00252627,0.00186861,0.00138594,-0.00347532,-0.000289141,0.00283529,0.00988612,-0.00283901,6.33291e-05,0.00081914
1413393213255760384,-1.54193,0.0852213,1.2639,0.602712,-0.0101122,-0.797891,-0.00262822,0.00209964,-1.90854e-05,-0.002203,-0.000302158,0.00292888,0.0101997,-0.0030817,7.06381e-05,0.000881486
1413393213305760512,-1.53984,0.0827844,1.25759,0.602763,-0.0100416,-0.797853,-0.00251134,0.000892807,-0.00171058,-0.00290063,-0.000301751,0.00301433,0.0105186,-0.00355115,4.10904e-05,0.00101153
1413393213355760384,-1.54166,0.0847124,1.26413,0.602742,-0.00996431,-0.797871,-0.00226529,0.00149781,0.00174754,-0.00599265,-0.000315679,0.00310102,0.0108165,-0.00398745,2.06397e-05,0.00111372
1413393213405760512,-1.54635,0.0868136,1.26815,0.602725,-0.00994859,-0.797884,-0.00247419,0.00123401,0.00137782,-0.00391078,-0.000319427,0.00320474,0.0111494,-0.00462857,6.47403e-05,0.00128713
1413393213455760384,-1.54933,0.0919684,1.27368,0.602677,-0.0101527,-0.797917,-0.00262074,-0.000177419,-0.00163259,-0.00597166,-0.00032577,0.00328413,0.0114435,-0.00490652,7.15014e-05,0.00127017
1413393213505760512,-1.55158,0.0960997,1.26935,0.602667,-0.0105503,-0.797917,-0.00309921,-0.0013608,-0.00140998,-0.00539784,-0.000321154,0.00336773,0.0117174,-0.00507103,9.10344e-05,0.0013118
1413393213555760384,-1.55229,0.0967424,1.2572,0.602712,-0.0105094,-0.797884,-0.00305074,0.000268025,0.000226666,-0.00431914,-0.000294444,0.00344243,0.0120392,-0.00533596,8.94403e-05,0.00146986
1413393213605760512,-1.55201,0.0959469,1.25935,0.602742,-0.010553,-0.797861,-0.00303741,0.00129803,0.00145526,-0.00429368,-0.000340113,0.00351361,0.0123717,-0.00573749,0.00011652,0.00161287
1413393213655760384,-1.55431,0.0984946,1.25812,0.602781,-0.0105086,-0.797832,-0.00312592,0.00109156,-0.000586179,-0.00525426,-0.000359858,0.00360447,0.0126897,-0.00601097,0.000164839,0.00171561
1413393213705760512,-1.55465,0.100004,1.2624,0.602808,-0.0105849,-0.79781,-0.00313391,0.00120702,-0.0030217,-0.00540785,-0.000352784,0.00366159,0.0129528,-0.00595606,0.000256078,0.00173589
1413393213755760384,-1.55411,0.0984344,1.25784,0.602815,-0.0107064,-0.797803,-0.00314952,0.0022077,-0.00101581,-0.00629555,-0.00036613,0.00373603,0.0132421,-0.00638606,0.000183085,0.00185105
1413393213805760512,-1.5547,0.0986367,1.26873,0.602838,-0.0104469,-0.79779,-0.00298349,0.00151938,-0.000622938,-0.00838567,-0.000380872,0.00381127,0.0135033,-0.00679694,0.000235742,0.00195667
1413393213855760384,-1.55556,0.0999886,1.27557,0.602862,-0.0104076,-0.797772,-0.00293219,0.000443305,-0.00161497,-0.0060983,-0.000378334,0.00389652,0.013847,-0.00740787,0.000254407,0.00212722
1413393213905760512,-1.55568,0.100559,1.27416,0.602817,-0.010513,-0.797805,-0.00297616,0.000912129,-0.00339384,-0.00630764,-0.000384331,0.00397885,0.0141404,-0.00799503,0.000266043,0.00235458
1413393213955760384,-1.55541,0.0994141,1.27056,0.60275,-0.0105966,-0.797854,-0.00304932,0.0012498,-0.00330738,-0.00364196,-0.000389531,0.00405438,0.0144005,-0.00864046,0.000240813,0.00250859
1413393214005760512,-1.55494,0.101111,1.26098,0.602659,-0.0108246,-0.797919,-0.00316817,0.00120972,0.0106987,-0.000481956,-0.000393897,0.00414172,0.0146855,-0.00948109,0.000221338,0.00280342
1413393214055760384,-1.55281,0.0992716,1.26337,0.602781,-0.0111417,-0.797821,-0.00354691,0.00250533,0.00719428,-0.00356926,-0.000406975,0.00421774,0.0149327,-0.00999055,0.000192314,0.00283079
1413393214105760512,-1.55188,0.0996255,1.24949,0.602512,-0.0111378,-0.798025,-0.0033823,-4.55308e-05,0.00240304,-0.00270417,-0.000408713,0.00431498,0.0152587,-0.0110399,0.000144366,0.00307861
1413393214155760384,-1.54962,0.0976339,1.23991,0.602673,-0.0112349,-0.797901,-0.00355104,0.00191634,-0.000949396,-0.00452093,-0.000420617,0.00439894,0.0155179,-0.0117374,0.00011294,0.00302958
1413393214205760512,-1.54874,0.0974947,1.21718,0.602577,-0.0112578,-0.797975,-0.00328967,-0.000400534,0.000804637,-0.00483232,-0.00042446,0.00449373,0.0158196,-0.0128352,1.31923e-05,0.00322881
1413393214255760384,-1.54781,0.0989078,1.19054,0.602657,-0.0112809,-0.797912,-0.00369794,-0.00110723,-0.000685955,-0.0050357,-0.000429704,0.0045842,0.0160899,-0.0135214,-0.000140604,0.00317855
1413393214305760512,-1.54668,0.0988359,1.18031,0.602647,-0.0113975,-0.797919,-0.00356257,-0.00102652,-0.00451699,-0.00696619,-0.000430122,0.00466114,0.0163289,-0.0138425,-0.000161691,0.00314524
1413393214355760384,-1.54703,0.0985913,1.16194,0.602689,-0.011359,-0.797888,-0.00344636,-0.00122627,0.000445462,-0.00518754,-0.000443388,0.00474385,0.0166208,-0.0143903,-0.000302613,0.00315542
1413393214405760512,-1.54559,0.0995558,1.15702,0.602657,-0.0117457,-0.797905,-0.00392702,-0.000150447,-0.00128262,-0.00564397,-0.000456435,0.0048313,0.0168805,-0.0149526,-0.000302018,0.00331864
1413393214455760384,-1.54522,0.099572,1.15963,0.60273,-0.0117449,-0.79785,-0.00368167,-0.000117786,5.76591e-05,-0.00429376,-0.000457529,0.00490837,0.0171422,-0.0153046,-0.000258221,0.00338928
1413393214505760512,-1.54365,0.0966732,1.16763,0.602687,-0.0122055,-0.797873,-0.00422751,0.000331022,-0.000452067,-0.00208354,-0.000462241,0.00499649,0.0174089,-0.0157853,-0.000275174,0.0035687
1413393214555760384,-1.54146,0.0917518,1.17456,0.602717,-0.0127795,-0.797841,-0.00445164,0.00139897,-0.00208358,-0.00334144,-0.000478739,0.00507496,0.0176633,-0.0160936,-0.000328579,0.00360792
1413393214605760512,-1.54206,0.0846249,1.18714,0.602702,-0.0133158,-0.797839,-0.00502584,-5.48204e-05,-0.000243893,-0.00357543,-0.000493535,0.00514639,0.0179064,-0.0164787,-0.000296422,0.00373361
1413393214655760384,-1.54165,0.0838615,1.18774,0.602748,-0.0132949,-0.797806,-0.00494078,0.00194317,-0.00263557,-0.00238253,-0.000504225,0.00521582,0.0181696,-0.0164989,-0.000401379,0.00390278
1413393214705760512,-1.54197,0.0843841,1.1895,0.602798,-0.0134004,-0.797766,-0.00497445,-0.000456423,-0.001038,-0.00477829,-0.000504284,0.00529374,0.0184244,-0.016603,-0.000362869,0.00393212
1413393214755760384,-1.54303,0.0846777,1.19168,0.602788,-0.0133547,-0.797774,-0.00503485,0.000354354,-0.00184734,-0.00329011,-0.000507201,0.00536635,0.0186709,-0.016915,-0.000410131,0.00418737
1413393214805760512,-1.54376,0.0849722,1.19425,0.602822,-0.0133424,-0.79775,-0.00491903,0.000253043,-0.000589857,-0.00286312,-0.000518096,0.00544111,0.0189121,-0.0170642,-0.000324578,0.00439999
1413393214855760384,-1.54425,0.0850301,1.19401,0.602833,-0.013458,-0.797738,-0.00508373,0.000191099,0.000387672,-0.00257474,-0.00052489,0.00550527,0.0191409,-0.0171819,-0.000324451,0.00461705
1413393214905760512,-1.54435,0.0854143,1.19407,0.602817,-0.0135405,-0.797748,-0.00514671,0.000703278,-0.00101717,-0.00189632,-0.000547213,0.00557985,0.0193756,-0.0172442,-0.000381415,0.0047265
1413393214955760384,-1.54466,0.0855807,1.19295,0.602807,-0.013642,-0.797754,-0.0051471,0.000709207,2.25994e-05,-0.000158212,-0.000557124,0.00564735,0.0196286,-0.0174257,-0.00049551,0.00499488
1413393215005760512,-1.54487,0.0853695,1.19564,0.602793,-0.0139031,-0.797759,-0.00535387,0.000237536,0.000401726,0.000611999,-0.000552194,0.00571392,0.0198818,-0.0175564,-0.000232321,0.00482821
1413393215055760384,-1.5446,0.0866492,1.19691,0.602595,-0.0144648,-0.797893,-0.00604463,-0.00194764,-0.00320259,0.00149015,-0.000567661,0.0057855,0.0201274,-0.0175141,-0.000173425,0.00453049
1413393215105760512,-1.54457,0.0919582,1.18993,0.602504,-0.0152352,-0.797946,-0.00622385,-0.00288624,-0.0081948,-0.00474567,-0.000567865,0.00585639,0.0203499,-0.0173029,-0.000198469,0.00414292
1413393215155760384,-1.54537,0.0965749,1.18334,0.602632,-0.0159234,-0.79783,-0.00694299,-0.00253837,-0.00227988,-0.00337738,-0.000564597,0.00591837,0.0205934,-0.0175783,6.54337e-06,0.00410858
1413393215205760512,-1.54171,0.0979094,1.17744,0.602531,-0.0166451,-0.797886,-0.00761263,-0.00313219,-0.00238781,-0.00558385,-0.000567344,0.00599991,0.0208181,-0.0173641,-0.000114035,0.00419907
1413393215255760384,-1.54306,0.10494,1.17607,0.602585,-0.0174103,-0.797824,-0.00811458,-0.00344827,-0.00228023,-0.00670078,-0.000568177,0.00604847,0.0210187,-0.017203,0.000229872,0.00379819
1413393215305760512,-1.53595,0.105343,1.1664,0.602557,-0.0181684,-0.797822,-0.00872177,-0.00366676,-0.000387901,-0.00559755,-0.000580945,0.00610503,0.0212596,-0.0176686,-1.43217e-05,0.00399931
1413393215355760384,-1.53308,0.106076,1.16767,0.602519,-0.0189628,-0.797825,-0.00936539,-0.00146415,-0.00186771,-0.00454477,-0.000570261,0.00618348,0.0215522,-0.0185852,5.93827e-05,0.0039562
1413393215405760512,-1.53233,0.110038,1.16531,0.602312,-0.0195642,-0.797961,-0.00979941,-0.00158118,0.00044793,-0.00197487,-0.00056128,0.00624533,0.0217825,-0.0192063,6.17271e-05,0.0038194
1413393215455760384,-1.53119,0.113649,1.1663,0.602115,-0.019517,-0.798109,-0.00995416,-0.00402397,0.00105745,0.000991767,-0.000565811,0.00632629,0.0220097,-0.0197283,-4.3025e-05,0.00361365
1413393215505760512,-1.53522,0.118735,1.16376,0.601945,-0.020007,-0.798222,-0.0101908,-0.00348606,-0.000305912,-0.00015794,-0.000571397,0.00639718,0.0222265,-0.0204662,7.76399e-05,0.00337132
1413393215555760384,-1.53485,0.121712,1.15493,0.601808,-0.0199352,-0.798327,-0.0101962,-0.0074235,-0.000562156,0.00229912,-0.000568315,0.00646989,0.0224517,-0.0210703,-1.16436e-05,0.00323073
1413393215605760512,-1.535,0.122439,1.152,0.601728,-0.0203228,-0.798373,-0.0105989,-0.00841447,-0.00153305,0.00483524,-0.000564462,0.00654339,0.0227054,-0.0218853,-5.1496e-05,0.00336502
1413393215655760384,-1.53338,0.125078,1.1447,0.60151,-0.0208309,-0.798524,-0.0105598,-0.00643403,0.001611,0.00336808,-0.00058899,0.00660773,0.0228778,-0.022264,-0.000167069,0.00317028
1413393215705760512,-1.53029,0.121712,1.15303,0.600929,-0.0211136,-0.798952,-0.0107324,-0.00211873,-0.00169531,-0.00506691,-0.000585474,0.00667505,0.0231191,-0.0231055,-0.00039323,0.003372
1413393215755760384,-1.53211,0.122516,1.15425,0.600403,-0.0212921,-0.799337,-0.0111576,0.00112465,0.000307419,-0.0085239,-0.000589057,0.00672368,0.0232942,-0.0234181,-0.00026103,0.00328562
1413393215805760512,-1.53204,0.121708,1.16043,0.599998,-0.0214598,-0.799633,-0.011353,0.00562658,-0.00256214,0.00544248,-0.000611692,0.00677452,0.0234935,-0.0238885,-0.000224623,0.00328021
1413393215855760384,-1.53041,0.120595,1.17106,0.599746,-0.0213789,-0.799826,-0.0112681,0.00284249,0.000162799,0.00311725,-0.000632316,0.00684539,0.0237122,-0.0245936,-0.000302265,0.00338035
1413393215905760512,-1.5399,0.126316,1.16478,0.599645,-0.0216285,-0.799894,-0.0113625,0.000964853,-0.002429,0.00269421,-0.000611699,0.00690479,0.023912,-0.0246371,0.000428893,0.0030633
1413393215955760384,-1.5375,0.120669,1.18355,0.599576,-0.0219779,-0.799938,-0.0111951,0.00339446,-0.000327123,0.00111325,-0.000622669,0.00695106,0.0241542,-0.0256883,0.000365664,0.00349225
1413393216005760512,-1.54026,0.117545,1.18826,0.599646,-0.0222489,-0.799868,-0.0119111,0.00743784,-0.00153326,0.00258346,-0.000614296,0.00702348,0.0243819,-0.026543,0.000561426,0.00395091
1413393216055760384,-1.54667,0.119017,1.17729,0.599677,-0.0222133,-0.799836,-0.0124882,-0.00122097,-0.000725306,-0.00057176,-0.000604129,0.00704438,0.0245841,-0.0276087,0.00126473,0.00427
1413393216105760512,-1.54811,0.117324,1.17798,0.599597,-0.0225768,-0.799882,-0.0127412,-0.00216291,-0.000607014,-0.0107257,-0.000626447,0.00712071,0.0247363,-0.0276827,0.00141095,0.00445769
1413393216155760384,-1.55373,0.116139,1.17307,0.60001,-0.0225593,-0.799569,-0.0129785,-0.00278902,-0.002122,-0.00606418,-0.000604267,0.00718611,0.024968,-0.028669,0.00215586,0.00524894
1413393216205760512,-1.55322,0.111318,1.17978,0.599786,-0.0227326,-0.799729,-0.0132231,-0.00346083,0.00212625,-0.00813309,-0.000622737,0.00724331,0.0251675,-0.0289415,0.00218995,0.00577847
1413393216255760384,-1.55381,0.109279,1.18312,0.598812,-0.0227924,-0.80046,-0.013017,-0.0101749,0.00364586,-0.00309069,-0.000623577,0.0072853,0.0253318,-0.0290124,0.00226747,0.00626589
1413393216305760512,-1.55163,0.103339,1.19909,0.597746,-0.0229805,-0.801252,-0.0129268,-0.00594394,-0.00142364,-0.00435962,-0.000618184,0.00736099,0.0256099,-0.030465,0.00257043,0.00783384
1413393216355760384,-1.55059,0.101111,1.20675,0.597336,-0.0234086,-0.801548,-0.0127628,0.00281558,0.00626034,-0.00818534,-0.000649916,0.00740426,0.0257893,-0.0312571,0.00268672,0.00858361
1413393216405760512,-1.55012,0.100077,1.21,0.596891,-0.0232643,-0.801887,-0.0125398,0.00197678,-0.00394559,-0.013725,-0.000653297,0.00748555,0.0259676,-0.031656,0.00250798,0.00945717
1413393216455760384,-1.54447,0.0967069,1.23273,0.597007,-0.0233224,-0.80179,-0.0131233,-0.00290641,0.00191958,0.00354583,-0.000680245,0.00748673,0.0261253,-0.0322041,0.00316874,0.0105605
1413393216505760512,-1.53616,0.0909543,1.25138,0.595233,-0.024161,-0.803071,-0.0138505,0.00494076,0.0106783,0.00530531,-0.000663234,0.00754151,0.0263286,-0.0330786,0.00370705,0.0121448
1413393216555760384,-1.5254,0.0846084,1.25564,0.594578,-0.0254517,-0.803493,-0.0151314,0.00222,0.0122214,-0.0265143,-0.000682463,0.00763499,0.0264712,-0.0334382,0.00421441,0.0131457
1413393216605760512,-1.51024,0.0792028,1.25379,0.594105,-0.0291764,-0.803685,-0.0166909,0.000153,0.0190408,-0.0193778,-0.000674048,0.00767532,0.0266765,-0.0341455,0.00460311,0.0142725
1413393216655760384,-1.49963,0.0619632,1.27419,0.594686,-0.0317814,-0.803094,-0.0194465,-0.00101209,0.00518915,0.0162833,-0.000666129,0.00773627,0.026862,-0.0350194,0.00427614,0.0164249
1413393216705760512,-1.50617,0.059185,1.26838,0.595249,-0.0323252,-0.802567,-0.0228142,0.0162754,0.0146152,0.0284074,-0.000676532,0.00782129,0.0270711,-0.0357416,0.0049481,0.0176607
1413393216755760384,-1.49134,0.0383662,1.29395,0.595384,-0.0322834,-0.802368,-0.0261256,0.0106097,0.0133111,0.0412462,-0.000687751,0.00786383,0.0272447,-0.0363509,0.00415803,0.0197137
1413393216805760512,-1.48272,0.0261974,1.31165,0.595827,-0.0325074,-0.801913,-0.0294785,0.0157625,0.00292517,0.0813253,-0.000688973,0.00789316,0.0274201,-0.0369528,0.00379423,0.0210439
1413393216855760384,-1.46476,0.0230535,1.31357,0.596642,-0.0328758,-0.801191,-0.032105,0.0232724,0.00648396,0.08734,-0.000739708,0.00796556,0.0275808,-0.0374511,0.00274107,0.0218908
1413393216905760512,-1.46171,0.0208621,1.33988,0.598369,-0.0338837,-0.799735,-0.0350806,0.0313011,-0.00666894,0.121743,-0.000720499,0.00800315,0.0277741,-0.0370281,0.00292092,0.0228493
1413393216955760384,-1.46767,0.0484777,1.31744,0.59829,-0.0340508,-0.799596,-0.039194,0.0380714,-0.00901492,0.135894,-0.000703781,0.00806089,0.0279613,-0.0369842,0.00314919,0.0232479
1413393217005760512,-1.47465,0.085771,1.29095,0.597565,-0.0353998,-0.799917,-0.042389,0.0506763,-0.0216075,0.153094,-0.000708602,0.00812927,0.0281254,-0.037144,0.00366924,0.0230177
1413393217055760384,-1.46352,0.107882,1.25789,0.59556,-0.036805,-0.80125,-0.0441921,0.057191,-0.0458733,0.218846,-0.00070032,0.00820679,0.0283097,-0.0373256,0.00295177,0.0229545
1413393217105760512,-1.46514,0.131412,1.2448,0.594502,-0.0385735,-0.801873,-0.045599,0.0704723,-0.0538432,0.267408,-0.000692907,0.00825099,0.0284958,-0.0375066,0.00294518,0.0230285
1413393217155760384,-1.45729,0.145298,1.24596,0.593141,-0.0407876,-0.802719,-0.0465118,0.0759841,-0.0771537,0.27186,-0.000695643,0.0082817,0.0286869,-0.0377325,0.00255834,0.022982
1413393217205760512,-1.45174,0.16793,1.18615,0.592324,-0.0427255,-0.803144,-0.047827,0.0854771,-0.0920411,0.260174,-0.00066576,0.00834436,0.0288572,-0.0387226,0.00196384,0.0221218
1413393217255760384,-1.44663,0.173374,1.19299,0.592443,-0.0435163,-0.802873,-0.0501363,0.0881007,-0.100821,0.242375,-0.000657116,0.00834263,0.0290108,-0.0391173,0.00169418,0.021529
1413393217305760512,-1.4411,0.185421,1.16697,0.591765,-0.0444978,-0.803191,-0.0521327,0.0971577,-0.117007,0.205305,-0.000653405,0.00842072,0.0292162,-0.0398668,0.00141988,0.0206642
1413393217355760384,-1.42453,0.18258,1.13579,0.590872,-0.0451119,-0.803789,-0.0525157,0.107264,-0.135226,0.171839,-0.00063867,0.00845747,0.029365,-0.0406625,0.000499458,0.0207218
1413393217405760512,-1.41247,0.180016,1.12746,0.589747,-0.045836,-0.804503,-0.053611,0.126118,-0.142558,0.158876,-0.000632743,0.00850019,0.0295638,-0.0414026,-0.000145523,0.0205925
1413393217455760384,-1.40267,0.17591,1.12549,0.588706,-0.0464708,-0.805198,-0.0540623,0.1346,-0.168087,0.141413,-0.000651459,0.00860937,0.0297375,-0.0422226,-0.000644228,0.0203735
1413393217505760512,-1.38161,0.161636,1.14305,0.588217,-0.0464117,-0.805519,-0.0546429,0.136446,-0.188799,0.127518,-0.000642981,0.00865295,0.0299223,-0.0431117,-0.00198608,0.0205541
1413393217555760384,-1.37153,0.153201,1.14392,0.588207,-0.0473975,-0.805402,-0.0556183,0.158903,-0.19276,0.102243,-0.000660313,0.008709,0.0300713,-0.0433914,-0.00247827,0.0203937
1413393217605760512,-1.36576,0.146366,1.148,0.588297,-0.0473105,-0.805283,-0.0564595,0.157768,-0.22825,0.0826443,-0.000647787,0.00877362,0.0302357,-0.0443875,-0.00253353,0.0201292
1413393217655760384,-1.35741,0.132775,1.15836,0.588264,-0.0475669,-0.805291,-0.0564869,0.168993,-0.236048,0.088677,-0.000644067,0.00883525,0.0303695,-0.044245,-0.00301965,0.0205315
1413393217705760512,-1.35493,0.123488,1.14831,0.588334,-0.0482918,-0.805137,-0.0573139,0.169725,-0.257888,0.130231,-0.000651453,0.0089101,0.0305002,-0.0443875,-0.00282982,0.0195986
1413393217755760384,-1.35687,0.120963,1.09826,0.588687,-0.0485181,-0.804864,-0.0573468,0.171118,-0.290751,0.173114,-0.000619335,0.00896909,0.0306126,-0.0440682,-0.00243425,0.0182679
1413393217805760512,-1.35147,0.107427,1.10565,0.588586,-0.0490125,-0.804909,-0.0573341,0.176308,-0.296852,0.204329,-0.000607887,0.00902396,0.0307489,-0.0440115,-0.00279894,0.0178115
1413393217855760384,-1.34529,0.0948893,1.08422,0.588688,-0.0502296,-0.804776,-0.0570947,0.182235,-0.310622,0.227511,-0.000628124,0.00905638,0.0309498,-0.043657,-0.00308296,0.0170527
1413393217905760512,-1.33604,0.0783557,1.08842,0.588881,-0.0506713,-0.804619,-0.0569248,0.17765,-0.336172,0.26515,-0.000610811,0.00909629,0.0311155,-0.0434155,-0.0033486,0.016387
1413393217955760384,-1.33068,0.0628317,1.08737,0.589568,-0.0511508,-0.80408,-0.0569924,0.186277,-0.337287,0.285694,-0.000570304,0.00914496,0.0313044,-0.0436885,-0.00348805,0.0160605
1413393218005760512,-1.32049,0.0444746,1.09153,0.589369,-0.0524644,-0.804204,-0.0560995,0.189871,-0.356731,0.262977,-0.00061191,0.00918572,0.0314845,-0.0433309,-0.00350489,0.0156169
1413393218055760384,-1.31752,0.0319802,1.09252,0.590018,-0.0545583,-0.803776,-0.0533601,0.190494,-0.37026,0.211504,-0.000536296,0.00920592,0.0316314,-0.043028,-0.00269116,0.0149681
1413393218105760512,-1.30921,0.0154403,1.09037,0.589806,-0.0574647,-0.80393,-0.0502436,0.195676,-0.362671,0.185174,-0.000534919,0.00925548,0.0317974,-0.0430458,-0.00271341,0.0144106
1413393218155760384,-1.30067,-0.00178128,1.10662,0.590041,-0.0615214,-0.803764,-0.0450614,0.195619,-0.381764,0.135755,-0.000564743,0.00929677,0.0319425,-0.0434597,-0.00266543,0.0138948
1413393218205760512,-1.29056,-0.0204878,1.11636,0.59067,-0.0652405,-0.803326,-0.0389916,0.206403,-0.378078,0.0842038,-0.000518658,0.00934264,0.0321103,-0.0434006,-0.00303395,0.0135614
1413393218255760384,-1.28116,-0.0383012,1.10362,0.590187,-0.0700693,-0.803539,-0.0331001,0.22681,-0.347655,0.03533,-0.000521383,0.00938993,0.0322572,-0.0434706,-0.00307639,0.0127605
1413393218305760512,-1.26999,-0.0560874,1.11456,0.589064,-0.0738655,-0.8042,-0.0284506,0.220254,-0.347402,0.000583311,-0.000532658,0.0094423,0.0324363,-0.0442342,-0.003343,0.0129828
1413393218355760384,-1.2576,-0.0739983,1.11305,0.588838,-0.073728,-0.804388,-0.028179,0.233638,-0.318717,-0.0394185,-0.000509053,0.00952072,0.0325385,-0.0441252,-0.00385434,0.0123533
1413393218405760512,-1.24446,-0.0904847,1.10747,0.589288,-0.0715631,-0.804075,-0.0328938,0.246745,-0.280763,-0.0651667,-0.00050146,0.00955722,0.032638,-0.0438586,-0.00414914,0.012005
1413393218455760384,-1.23126,-0.105087,1.10074,0.589239,-0.0683728,-0.80416,-0.0380832,0.250695,-0.28655,-0.0953835,-0.000527324,0.00957295,0.0327503,-0.0434408,-0.00427153,0.011887
1413393218505760512,-1.21718,-0.119657,1.09118,0.58972,-0.0649323,-0.803831,-0.0432484,0.262686,-0.271498,-0.0902058,-0.000484013,0.00957585,0.032861,-0.0431947,-0.00462584,0.0118334
1413393218555760384,-1.20189,-0.135218,1.09166,0.589872,-0.0621095,-0.803622,-0.048842,0.274361,-0.256819,-0.0892065,-0.00050246,0.00958492,0.0329749,-0.042941,-0.00511043,0.0113672
1413393218605760512,-1.18694,-0.15172,1.09591,0.590718,-0.0595558,-0.802976,-0.0523082,0.271755,-0.287976,-0.0811923,-0.000516337,0.00959854,0.0331217,-0.043179,-0.00557675,0.0106911
1413393218655760384,-1.17068,-0.169415,1.086,0.591248,-0.0578052,-0.802557,-0.0546534,0.282971,-0.284056,-0.0799197,-0.000492131,0.00962321,0.0332433,-0.0434579,-0.00591168,0.00982221
1413393218705760512,-1.15528,-0.18562,1.0812,0.591308,-0.0584294,-0.802439,-0.0550707,0.290396,-0.285207,-0.0654951,-0.000523034,0.00965334,0.0333699,-0.043835,-0.00616694,0.0094769
1413393218755760384,-1.13936,-0.202245,1.07006,0.589696,-0.0576048,-0.803638,-0.0557384,0.289259,-0.316741,-0.0607703,-0.000539209,0.0096618,0.0335107,-0.0440784,-0.00662516,0.0090346
1413393218805760512,-1.12401,-0.21865,1.05247,0.585567,-0.058558,-0.806684,-0.0542501,0.301807,-0.308114,-0.056911,-0.000546935,0.0096969,0.0336464,-0.0445312,-0.00684292,0.00887237
1413393218855760384,-1.10911,-0.234585,1.04481,0.579069,-0.0626443,-0.811322,-0.0501141,0.298824,-0.310278,-0.0483613,-0.000548692,0.00972345,0.0337802,-0.0448726,-0.00689446,0.00874731
1413393218905760512,-1.09351,-0.251613,1.03141,0.572459,-0.065569,-0.816012,-0.0460026,0.28388,-0.325062,-0.0458835,-0.00055084,0.00974835,0.0339181,-0.0454916,-0.00686456,0.00882546
1413393218955760384,-1.07883,-0.268875,1.00427,0.566728,-0.0679163,-0.819963,-0.0432339,0.27127,-0.302048,-0.0198356,-0.00054964,0.00981483,0.0340372,-0.0462953,-0.00679284,0.00854979
1413393219005760512,-1.06557,-0.285537,1.01472,0.563094,-0.0701566,-0.822356,-0.0416473,0.246611,-0.28961,0.00120094,-0.000538495,0.00986866,0.0341828,-0.0468221,-0.006794,0.00845776
1413393219055760384,-1.05331,-0.303942,1.03598,0.561287,-0.0714134,-0.823578,-0.039695,0.212295,-0.286322,0.0211978,-0.000547253,0.00994364,0.0343419,-0.0469935,-0.00687286,0.00795247
1413393219105760512,-1.04249,-0.32002,1.04848,0.561658,-0.0712767,-0.823335,-0.0397531,0.184885,-0.26136,0.0485148,-0.000544932,0.00999308,0.0344628,-0.0471511,-0.00704588,0.00753131
1413393219155760384,-1.03223,-0.334854,1.02006,0.562868,-0.0716548,-0.822498,-0.0392883,0.152959,-0.24688,0.0543657,-0.000536729,0.0100498,0.0346153,-0.0472769,-0.00647226,0.0069925
1413393219205760512,-1.02383,-0.348809,0.975039,0.563759,-0.0715848,-0.821907,-0.0390056,0.124348,-0.242456,0.0696805,-0.000500397,0.0100833,0.0347552,-0.0471782,-0.00548274,0.00647077
1413393219255760384,-1.0165,-0.361599,0.947202,0.56545,-0.0710771,-0.820792,-0.0389302,0.102937,-0.226692,0.0914703,-0.000451048,0.0101027,0.0349162,-0.0467004,-0.00481018,0.00596294
1413393219305760512,-1.0111,-0.372457,0.924309,0.56667,-0.0705702,-0.82001,-0.0385866,0.0774617,-0.204041,0.0996661,-0.000459773,0.0101561,0.0350472,-0.0469304,-0.00435545,0.0060457
1413393219355760384,-1.00751,-0.382352,0.891611,0.567026,-0.0703909,-0.819798,-0.0381882,0.0471031,-0.196317,0.110358,-0.00046104,0.0101876,0.0351746,-0.0473806,-0.00385977,0.00593663
1413393219405760512,-1.00568,-0.392035,0.876355,0.567726,-0.0708422,-0.819339,-0.0367773,0.0291591,-0.178774,0.108357,-0.000458042,0.0102066,0.0353054,-0.0478235,-0.00339188,0.0060233
1413393219455760384,-1.00505,-0.400584,0.85883,0.568754,-0.0706189,-0.818633,-0.0370443,-0.00129687,-0.156103,0.0678724,-0.000448951,0.0102676,0.0354516,-0.0486971,-0.00279475,0.00597446
1413393219505760512,-1.00649,-0.406438,0.862151,0.569653,-0.0699678,-0.818058,-0.0371747,-0.0253388,-0.144373,0.0286983,-0.000461534,0.0103051,0.0355603,-0.0491177,-0.00239971,0.00574485
1413393219555760384,-1.08689,-0.293317,0.684293,0.571426,-0.055458,-0.818351,-0.0264538,-0.0366476,-0.122125,0.00217958,-0.000795704,0.0104059,0.0357452,-0.0483465,0.00543548,0.011777
1413393219605760512,-1.08538,-0.310895,0.607611,0.5729,-0.0538711,-0.817437,-0.0261106,-0.0476878,-0.107456,-0.000535988,-0.000807906,0.0104688,0.035874,-0.0485399,0.00663847,0.0108498
1413393219655760384,-1.08262,-0.330286,0.498895,0.574974,-0.0531817,-0.816036,-0.0257311,-0.0625123,-0.0999277,0.0307037,-0.000812835,0.0105178,0.0359846,-0.0485149,0.0073455,0.00918302
1413393219705760512,-1.08109,-0.346745,0.388825,0.577611,-0.051087,-0.814309,-0.0256285,-0.0772462,-0.0840584,0.0881963,-0.000851799,0.0105689,0.0361227,-0.0486592,0.00849103,0.00803986
1413393219755760384,-1.0823,-0.359682,0.334759,0.580543,-0.049983,-0.812248,-0.0269396,-0.097952,-0.0739955,0.157509,-0.000855289,0.0106458,0.0362381,-0.0489427,0.00914234,0.00691402
1413393219805760512,-1.08328,-0.371461,0.237705,0.583442,-0.0452449,-0.810428,-0.0274979,-0.080788,-0.0677244,0.206986,-0.000877825,0.0106742,0.036348,-0.0486979,0.0104153,0.00605146
1413393219855760384,-1.08189,-0.380285,0.243382,0.584475,-0.0442139,-0.809726,-0.027911,-0.0720416,-0.0609038,0.313534,-0.000920438,0.0107212,0.0364664,-0.048602,0.0117538,0.00605625
1413393219905760512,-1.0792,-0.398835,0.181247,0.585599,-0.0474313,-0.808562,-0.0324395,-0.0737297,-0.0633408,0.332345,-0.000849924,0.0107792,0.0365968,-0.048766,0.0101816,0.00234416
1413393219955760384,-1.0791,-0.401231,0.17261,0.586772,-0.0463418,-0.807691,-0.0344558,-0.0759263,-0.0567529,0.331786,-0.0008431,0.0108334,0.036723,-0.0491498,0.010334,0.0018679
1413393220005760512,-1.08226,-0.404021,0.185963,0.587867,-0.0458948,-0.806894,-0.0350449,-0.0644623,-0.0593706,0.291077,-0.000861782,0.0108919,0.0368591,-0.0491542,0.0103902,0.00156512
1413393220055760384,-1.08203,-0.40003,0.12943,0.589203,-0.045472,-0.805909,-0.0358246,-0.0414162,-0.0665744,0.235978,-0.000857683,0.0109202,0.0369281,-0.048449,0.0110807,0.00120896
1413393220105760512,-1.07533,-0.409296,0.0869721,0.589917,-0.0437497,-0.805527,-0.0347948,-0.0357756,-0.064018,0.212473,-0.000876088,0.010955,0.037086,-0.0479106,0.0124988,0.000484459
1413393220155760384,-1.07173,-0.421243,0.0821027,0.590413,-0.0425376,-0.805225,-0.0348593,-0.0278609,-0.0747462,0.194398,-0.000891492,0.0109696,0.0372232,-0.0474719,0.0142826,0.000779284
1413393220205760512,-1.07037,-0.43123,0.101564,0.591025,-0.0427731,-0.804699,-0.0363224,-0.0252168,-0.0792203,0.219588,-0.000858145,0.0109998,0.0373058,-0.0475955,0.0145294,-3.41307e-06
1413393220255760384,-1.06879,-0.442992,0.10329,0.591556,-0.0444263,-0.804178,-0.0372276,-0.0203931,-0.0732294,0.221266,-0.000810874,0.0110137,0.0374143,-0.0480135,0.0146799,-0.000737589
1413393220305760512,-1.06707,-0.452359,0.0971686,0.591979,-0.0439362,-0.803828,-0.0386226,-0.0106759,-0.09355,0.229036,-0.000867682,0.0110548,0.0375677,-0.0490327,0.0160037,-0.000203803
1413393220355760384,-1.06492,-0.473295,0.0979804,0.592461,-0.0459088,-0.803301,-0.0398712,-0.00528566,-0.0977125,0.234664,-0.000780474,0.0110385,0.0376448,-0.0503024,0.0162007,-0.00127068
1413393220405760512,-1.06345,-0.481768,0.0435597,0.592466,-0.0470239,-0.803207,-0.0403987,0.00517178,-0.0960108,0.250681,-0.000763451,0.0110583,0.0377749,-0.0518146,0.0173839,-0.000283445
1413393220455760384,-1.06263,-0.491968,0.0183407,0.591752,-0.0474858,-0.803687,-0.0407577,0.0189764,-0.117003,0.245857,-0.000818297,0.0110861,0.0378998,-0.0535216,0.0181993,0.000666897
1413393220505760512,-1.06012,-0.502568,-0.00953274,0.589946,-0.0483873,-0.804971,-0.0405591,0.0241141,-0.119159,0.231282,-0.000770167,0.0110945,0.0380038,-0.0556,0.0188667,0.00184898
1413393220555760384,-1.05995,-0.514241,0.0288937,0.588243,-0.0495229,-0.806156,-0.0403856,0.0361563,-0.115218,0.189938,-0.000758256,0.0110984,0.0381316,-0.0581836,0.0198304,0.00254919
1413393220605760512,-1.05733,-0.524114,0.0393073,0.587365,-0.0502713,-0.80674,-0.0405641,0.0287549,-0.12767,0.128743,-0.000782356,0.0111333,0.0382317,-0.060407,0.0205255,0.00319421
1413393220655760384,-1.05663,-0.533247,0.0600328,0.588002,-0.0502826,-0.806271,-0.0406637,0.0267455,-0.130968,0.0693238,-0.000770794,0.0111522,0.0383111,-0.0630632,0.0214602,0.00384723
1413393220705760512,-1.05487,-0.543561,0.0484769,0.588534,-0.0515505,-0.805815,-0.0404162,0.0394325,-0.11594,0.0135647,-0.000765779,0.011172,0.038407,-0.0654476,0.0227231,0.00500667
1413393220755760384,-1.05141,-0.550494,0.0145531,0.588336,-0.0536088,-0.805947,-0.0379053,0.0278075,-0.138244,-0.0390522,-0.00077879,0.0112114,0.038519,-0.0681989,0.0234733,0.00506461
1413393220805760512,-1.04861,-0.557213,-0.0414826,0.586385,-0.0560698,-0.807375,-0.033997,0.0382882,-0.129607,-0.0332484,-0.000768179,0.0112579,0.0386445,-0.0711521,0.0245921,0.00566595
1413393220855760384,-1.04358,-0.56095,-0.133686,0.585005,-0.0595979,-0.808274,-0.030188,0.0459852,-0.0991753,0.0173712,-0.000780414,0.0113427,0.0387361,-0.0742351,0.0249879,0.00558857
1413393220905760512,-1.0425,-0.569472,-0.115726,0.584196,-0.0610861,-0.808837,-0.0276891,0.0508129,-0.119947,0.0686671,-0.000822077,0.0113376,0.038852,-0.075626,0.0267634,0.0068923
1413393220955760384,-1.04178,-0.574146,-0.132737,0.583157,-0.0619806,-0.809563,-0.0263607,0.0458769,-0.0892046,0.174176,-0.000816479,0.0113729,0.0389099,-0.0769937,0.0282087,0.00769916
1413393221005760512,-1.04084,-0.581359,-0.110304,0.583683,-0.0628725,-0.809071,-0.0276711,0.0454855,-0.0495062,0.200703,-0.000844142,0.0114154,0.0390221,-0.0787347,0.0295636,0.00968975
1413393221055760384,-1.03754,-0.580916,-0.157989,0.583152,-0.0630011,-0.809424,-0.0282561,0.0408744,-0.0600191,0.231979,-0.00084481,0.0114675,0.0391051,-0.0803122,0.0306669,0.00943295
1413393221105760512,-1.03543,-0.583019,-0.162844,0.582118,-0.0631327,-0.810152,-0.0284134,0.0355981,-0.0359077,0.246462,-0.000831195,0.0114789,0.0392004,-0.0818877,0.0312883,0.00916593
1413393221155760384,-1.03335,-0.584824,-0.148525,0.581586,-0.0636982,-0.810444,-0.0296959,0.041916,-0.0109857,0.265564,-0.000866602,0.0115462,0.0392987,-0.0839628,0.031283,0.00977338
1413393221205760512,-1.03249,-0.58766,-0.114591,0.5803,-0.0634724,-0.811331,-0.0310773,0.0257506,-0.0163447,0.273305,-0.000909862,0.0115689,0.0393823,-0.0853204,0.031813,0.0103427
1413393221255760384,-1.03064,-0.585544,-0.109901,0.578825,-0.0631348,-0.812396,-0.0314533,0.0225436,0.00633989,0.270891,-0.000864409,0.0116293,0.0394745,-0.0863035,0.0328976,0.010545
1413393221305760512,-1.03159,-0.583813,-0.100503,0.577052,-0.0613332,-0.813725,-0.0331788,0.0173841,0.029247,0.25676,-0.000906671,0.0116737,0.0395959,-0.0861852,0.0348084,0.0118021
1413393221355760384,-1.02945,-0.581494,-0.0837798,0.575268,-0.0612683,-0.81498,-0.0334716,-0.00258663,0.0213878,0.292774,-0.000907225,0.0116991,0.0396937,-0.0865266,0.0358893,0.0118977
1413393221405760512,-1.02756,-0.578914,-0.0868682,0.57367,-0.0612962,-0.816022,-0.0354075,-0.0169121,0.0343978,0.296733,-0.0008639,0.011775,0.0397777,-0.0874789,0.036529,0.0112997
1413393221455760384,-1.02556,-0.57766,-0.0784115,0.572999,-0.061319,-0.816349,-0.0385488,-0.0298259,0.0504146,0.276851,-0.00088226,0.0118406,0.0398834,-0.0876269,0.0364401,0.0102686
1413393221505760512,-1.03479,-0.567223,-0.113355,0.572222,-0.0566358,-0.817316,-0.0367262,-0.0468459,0.0424894,0.213998,-0.000952208,0.0119152,0.0400341,-0.0871084,0.0392605,0.0139253
1413393221555760384,-1.03546,-0.565154,-0.132733,0.571321,-0.0541815,-0.81799,-0.0393573,-0.0603828,0.0480487,0.165045,-0.00091082,0.0119633,0.040154,-0.0875195,0.041055,0.0141863
1413393221605760512,-1.03808,-0.563176,-0.149612,0.571265,-0.0532179,-0.817991,-0.0414209,-0.088954,0.0491278,0.147133,-0.000940385,0.0120242,0.0402766,-0.0869667,0.0424325,0.0133759
1413393221655760384,-1.04209,-0.561947,-0.13881,0.571749,-0.0519235,-0.817684,-0.0424313,-0.109485,0.0319297,0.152322,-0.000909473,0.0120773,0.0403941,-0.0861448,0.0434184,0.0133409
1413393221705760512,-1.047,-0.561621,-0.12586,0.574745,-0.0511907,-0.815581,-0.0433102,-0.118166,0.0372467,0.165917,-0.000895007,0.0121625,0.0405246,-0.0857879,0.0443636,0.0129678
1413393221755760384,-1.05226,-0.560747,-0.124099,0.578321,-0.0511307,-0.813083,-0.0427533,-0.126965,0.0283757,0.160897,-0.000908163,0.0122163,0.0406267,-0.0851136,0.0456858,0.0127233
1413393221805760512,-1.05819,-0.561728,-0.102243,0.581573,-0.0501259,-0.81084,-0.0424261,-0.12955,0.0074987,0.167003,-0.000904649,0.0122665,0.0407211,-0.0838596,0.04698,0.0124839
1413393221855760384,-1.06359,-0.560378,-0.126991,0.58362,-0.0492049,-0.809411,-0.0426788,-0.123826,0.02149,0.160022,-0.000887569,0.0123012,0.0408504,-0.0824741,0.0477323,0.0125303
1413393221905760512,-1.06944,-0.559616,-0.132732,0.584833,-0.0492564,-0.808573,-0.0418819,-0.125833,-0.000499529,0.150503,-0.000902592,0.0123449,0.0409597,-0.0815123,0.0482228,0.0126256
1413393221955760384,-1.07514,-0.560627,-0.125406,0.586444,-0.048801,-0.807521,-0.0401632,-0.122624,-0.0036323,0.130402,-0.000902537,0.0123626,0.0410539,-0.0805079,0.0491244,0.0122948
1413393222005760512,-1.08023,-0.560538,-0.142055,0.586515,-0.0487113,-0.807493,-0.0397723,-0.115959,0.0106211,0.0808771,-0.000887633,0.0124228,0.0411796,-0.0792677,0.0499706,0.0122708
1413393222055760384,-1.08488,-0.559429,-0.180372,0.587281,-0.048629,-0.806985,-0.0388689,-0.113401,-0.00726385,0.0228389,-0.000915934,0.0124487,0.0412836,-0.0781325,0.0507515,0.0124044
1413393222105760512,-1.0901,-0.560639,-0.184232,0.587954,-0.0482856,-0.806584,-0.0374279,-0.121047,-0.0174198,-0.0381947,-0.000910187,0.012484,0.0413878,-0.0771293,0.051829,0.0122836
1413393222155760384,-1.09628,-0.563069,-0.16741,0.587914,-0.0474591,-0.806668,-0.0373049,-0.118719,-0.00567099,-0.0936392,-0.000881261,0.0125168,0.0414941,-0.0761772,0.0533083,0.0119753
1413393222205760512,-1.10192,-0.563922,-0.17595,0.587772,-0.0469327,-0.806812,-0.0370924,-0.113323,-0.0155607,-0.154806,-0.00087723,0.0125413,0.0415947,-0.0749309,0.0543052,0.0117312
1413393222255760384,-1.1075,-0.565045,-0.178102,0.586564,-0.0465349,-0.807763,-0.0360156,-0.107255,-0.026496,-0.207668,-0.000873088,0.0125879,0.0416485,-0.0741463,0.0546466,0.0112884
1413393222305760512,-1.11282,-0.566594,-0.181443,0.584178,-0.0458967,-0.809521,-0.0361333,-0.102128,-0.0117813,-0.240605,-0.00086337,0.0126103,0.0417895,-0.0725117,0.0553362,0.010836
1413393222355760384,-1.11831,-0.568234,-0.183013,0.580014,-0.0459319,-0.812522,-0.0358021,-0.10597,-0.024822,-0.241175,-0.000847516,0.0126352,0.0419213,-0.0710783,0.0561972,0.0103879
1413393222405760512,-1.12383,-0.569637,-0.193445,0.575918,-0.0457393,-0.815485,-0.0347934,-0.113827,-0.0340342,-0.224353,-0.000822214,0.0126819,0.0419969,-0.0694893,0.0575937,0.00950501
1413393222455760384,-1.12983,-0.571121,-0.200932,0.572542,-0.0445855,-0.817866,-0.0361007,-0.12014,-0.024623,-0.199528,-0.000823621,0.0126858,0.0420941,-0.0682409,0.0581938,0.0090411
1413393222505760512,-1.13659,-0.572456,-0.204435,0.569839,-0.0450224,-0.819782,-0.0348436,-0.14052,-0.0346461,-0.168919,-0.000836134,0.0127201,0.0422,-0.0679032,0.057454,0.00912952
1413393222555760384,-1.14175,-0.570764,-0.291062,0.568997,-0.0459937,-0.820437,-0.0318007,-0.14297,-0.0391426,-0.108573,-0.000864459,0.012683,0.0421705,-0.0658238,0.0572051,0.00875731
1413393222605760512,-1.15047,-0.572585,-0.287494,0.567973,-0.0457766,-0.821186,-0.0310667,-0.169795,-0.0263814,-0.0767429,-0.000870828,0.0127644,0.0423204,-0.0651018,0.0570552,0.00856129
1413393222655760384,-1.15939,-0.573497,-0.298809,0.56656,-0.0459036,-0.822193,-0.0300352,-0.196959,-0.0282413,-0.015607,-0.000884744,0.0127655,0.0424114,-0.0647216,0.056617,0.00839617
1413393222705760512,-1.17367,-0.578285,-0.198032,0.566657,-0.044422,-0.82218,-0.0307736,-0.220169,-0.0294192,0.0340706,-0.000839514,0.0128187,0.0424978,-0.0645292,0.0570417,0.00785805
1413393222755760384,-1.18477,-0.578699,-0.214407,0.56525,-0.0448518,-0.823181,-0.0292264,-0.242807,-0.0221259,0.0674827,-0.000875502,0.0128061,0.0425525,-0.0645795,0.0573129,0.00817409
1413393222805760512,-1.19729,-0.579207,-0.220279,0.563504,-0.0449018,-0.824405,-0.0283511,-0.26797,-0.0215187,0.116829,-0.000866414,0.0128428,0.042606,-0.0646841,0.0574871,0.00823991
1413393222855760384,-1.21184,-0.580479,-0.202053,0.561454,-0.0447074,-0.82584,-0.0275745,-0.285784,-0.0193137,0.144287,-0.000887481,0.0128836,0.0426657,-0.0648136,0.0570901,0.00798489
1413393222905760512,-1.22694,-0.581575,-0.190332,0.560403,-0.0447205,-0.826608,-0.0258349,-0.31181,-0.0155025,0.181817,-0.000876851,0.0129133,0.0427592,-0.0640641,0.0577013,0.00767882
1413393222955760384,-1.24321,-0.582122,-0.185024,0.558824,-0.0439613,-0.827745,-0.0249215,-0.344176,-0.0111697,0.224972,-0.000886683,0.0129315,0.0428366,-0.0635867,0.0582782,0.00764999
1413393223005760512,-1.26089,-0.58257,-0.175346,0.559936,-0.0423931,-0.827063,-0.0253256,-0.359424,-0.00665896,0.232943,-0.000885672,0.0129369,0.0429283,-0.0630589,0.058816,0.00743018
1413393223055760384,-1.28005,-0.583146,-0.156332,0.561969,-0.0411747,-0.825763,-0.0247385,-0.386379,-0.00478405,0.250606,-0.000897626,0.0129878,0.0430218,-0.06226,0.0588845,0.00649433
1413393223105760512,-1.3001,-0.583304,-0.142324,0.563819,-0.0405126,-0.824555,-0.0239891,-0.407859,0.00725543,0.249546,-0.000892298,0.0130068,0.0431004,-0.0615658,0.0593878,0.0060184
1413393223155760384,-1.32117,-0.583025,-0.126614,0.565403,-0.0393566,-0.823489,-0.0252338,-0.432167,0.0101971,0.25057,-0.000902282,0.0130263,0.0431815,-0.0607059,0.0598457,0.00554693
1413393223205760512,-1.34329,-0.582971,-0.119379,0.567044,-0.036836,-0.822432,-0.0266548,-0.449595,0.00342727,0.256538,-0.000894813,0.0130455,0.0433039,-0.0611383,0.0610164,0.00558318
1413393223255760384,-1.36601,-0.582293,-0.123845,0.568012,-0.0355291,-0.821783,-0.0278021,-0.464306,0.0112229,0.219005,-0.00089683,0.013072,0.0434092,-0.0618006,0.061538,0.00537183
1413393223305760512,-1.38972,-0.582494,-0.116568,0.569607,-0.0352475,-0.820697,-0.0276134,-0.480945,-0.0027554,0.18507,-0.000917187,0.0130835,0.043501,-0.0626261,0.0622759,0.00551552
1413393223355760384,-1.41521,-0.583942,-0.0872369,0.570475,-0.0345042,-0.8201,-0.0283435,-0.497589,-0.00598655,0.102416,-0.000924388,0.0131063,0.0435725,-0.0628009,0.0629852,0.00515548
1413393223405760512,-1.44071,-0.585196,-0.0702043,0.572051,-0.0341606,-0.819008,-0.0285774,-0.504332,-0.00954847,0.00242454,-0.000902314,0.0131427,0.0436372,-0.0632794,0.0633666,0.00539844
1413393223455760384,-1.46626,-0.586172,-0.0725384,0.573987,-0.0334459,-0.817642,-0.0297164,-0.5144,-0.0126642,-0.113513,-0.000924856,0.013152,0.0437575,-0.0637163,0.0643587,0.00577686
1413393223505760512,-1.49307,-0.588776,-0.0524297,0.576538,-0.0330506,-0.815828,-0.0306119,-0.520209,-0.0160958,-0.212789,-0.000903097,0.0131727,0.0438126,-0.0647243,0.0651938,0.00652131
1413393223555760384,-1.51975,-0.591072,-0.0528336,0.579186,-0.0335985,-0.81392,-0.0308063,-0.527545,-0.0245268,-0.292813,-0.000884767,0.013219,0.0438994,-0.065338,0.0663015,0.00683737
1413393223605760512,-1.54586,-0.592651,-0.0678461,0.581807,-0.0338086,-0.811993,-0.0320163,-0.513676,-0.0248564,-0.365727,-0.000862182,0.0132115,0.0439559,-0.0655961,0.0667423,0.00691414
1413393223655760384,-1.57081,-0.593913,-0.108975,0.58399,-0.0345773,-0.810333,-0.0334725,-0.509597,-0.0320074,-0.401858,-0.000856932,0.0131992,0.0439831,-0.0647097,0.06753,0.00667374
1413393223705760512,-1.59741,-0.597726,-0.0872053,0.584833,-0.035691,-0.809633,-0.0345175,-0.502983,-0.0398356,-0.377999,-0.000862401,0.0132346,0.0441024,-0.0659317,0.0677889,0.006812
1413393223755760384,-1.62395,-0.601426,-0.0957529,0.585271,-0.0368528,-0.809198,-0.0360442,-0.508637,-0.0524098,-0.305269,-0.000840274,0.0133787,0.0443407,-0.0671232,0.0686214,0.00655458
1413393223805760512,-1.64869,-0.604717,-0.112706,0.586349,-0.0389291,-0.80828,-0.0369207,-0.502131,-0.072743,-0.252191,-0.000794563,0.0133247,0.0443826,-0.0663821,0.0689806,0.00596478
1413393223855760384,-1.6738,-0.609766,-0.0917845,0.585289,-0.0409292,-0.808904,-0.0379098,-0.480061,-0.0862553,-0.160196,-0.000770597,0.0132601,0.0443662,-0.0653721,0.0693617,0.00591664
1413393223905760512,-1.69747,-0.613142,-0.128659,0.585294,-0.0417394,-0.808711,-0.040942,-0.499427,-0.0903916,-0.0945088,-0.00075094,0.013274,0.0444638,-0.0656288,0.0696342,0.00539446
1413393223955760384,-1.71723,-0.606657,-0.484977,0.584158,-0.0429737,-0.809375,-0.0427235,-0.508356,-0.118927,-0.0328301,-0.000668905,0.0134964,0.0447837,-0.0683011,0.0719795,0.00388337
1413393224005760512,-1.73857,-0.604644,-0.760332,0.584636,-0.044132,-0.808904,-0.0439085,-0.514237,-0.135687,0.00117428,-0.000581463,0.0136213,0.044944,-0.0692112,0.0744147,0.00360033
1413393224055760384,-1.76359,-0.60929,-0.852592,0.5838,-0.0467141,-0.809356,-0.0440397,-0.51608,-0.146336,-0.00654551,-0.000521356,0.0136875,0.0450436,-0.0705782,0.0757907,0.00465388
1413393224105760512,-1.78982,-0.618594,-0.811427,0.584939,-0.048675,-0.808399,-0.0443746,-0.504755,-0.164202,-0.054181,-0.000519488,0.0137009,0.0450803,-0.070894,0.0757356,0.00563748
1413393224155760384,-1.81621,-0.629115,-0.757868,0.585373,-0.0495563,-0.807979,-0.045314,-0.493557,-0.170074,-0.0844406,-0.000468625,0.013749,0.0451629,-0.0717881,0.0758139,0.0068697
1413393224205760512,-1.84205,-0.640084,-0.687595,0.585424,-0.0492127,-0.807903,-0.0463689,-0.478997,-0.180434,-0.15135,-0.000456241,0.0137955,0.0452639,-0.0723322,0.0752168,0.008079
1413393224255760384,-1.86864,-0.651938,-0.610902,0.586375,-0.0495724,-0.807094,-0.0480339,-0.47443,-0.188653,-0.182823,-0.000446225,0.0138525,0.0453725,-0.0736352,0.0748347,0.00917516
1413393224305760512,-1.89396,-0.664522,-0.522015,0.587903,-0.050567,-0.805904,-0.048285,-0.45932,-0.196362,-0.247627,-0.000435129,0.0138885,0.0455147,-0.0749269,0.0737488,0.0100633
1413393224355760384,-1.91396,-0.669965,-0.624811,0.588282,-0.0498775,-0.805624,-0.049057,-0.461265,-0.195722,-0.298646,-0.000459229,0.013881,0.0455699,-0.0759288,0.07269,0.00978551
1413393224405760512,-1.93351,-0.673495,-0.779271,0.588007,-0.0516039,-0.805647,-0.050182,-0.460139,-0.193437,-0.340199,-0.000524237,0.0139205,0.0456462,-0.0770583,0.0718038,0.00902194
1413393224455760384,-1.94866,-0.673563,-1.09279,0.58903,-0.055035,-0.804659,-0.0503948,-0.456027,-0.204547,-0.385605,-0.000578215,0.013983,0.0457156,-0.077037,0.0701226,0.00644919
1413393224505760512,-1.96063,-0.672784,-1.44742,0.589159,-0.0600121,-0.804154,-0.0512561,-0.44561,-0.201248,-0.431577,-0.000610722,0.0140486,0.0458293,-0.0776944,0.0697242,0.00410822
1413393224555760384,-1.97014,-0.668368,-1.88959,0.588734,-0.0674848,-0.803881,-0.0511145,-0.443998,-0.203073,-0.461732,-0.000634617,0.0141672,0.0459127,-0.0781836,0.0696675,0.00108083
1413393224605760512,-1.98227,-0.667322,-2.23082,0.589548,-0.0752064,-0.802521,-0.0523252,-0.434108,-0.198584,-0.47689,-0.000643538,0.0142713,0.0460156,-0.0772211,0.0689464,-0.00263799
1413393224655760384,-1.99943,-0.673034,-2.38316,0.58938,-0.0838902,-0.8017,-0.0535939,-0.416775,-0.185471,-0.434173,-0.000667465,0.0143309,0.0460386,-0.0754046,0.0681627,-0.00511009
1413393224705760512,-2.01824,-0.684879,-2.44481,0.587444,-0.0921571,-0.802082,-0.0555002,-0.384135,-0.194718,-0.431146,-0.000700556,0.0143857,0.0460979,-0.0729184,0.0674732,-0.0062602
1413393224755760384,-2.03675,-0.694892,-2.47179,0.58567,-0.100901,-0.80224,-0.056757,-0.369211,-0.177397,-0.415209,-0.000720575,0.0143674,0.0461692,-0.0702339,0.0667287,-0.00606213
1413393224805760512,-2.05139,-0.699335,-2.61468,0.583934,-0.108946,-0.802149,-0.0609117,-0.32209,-0.158068,-0.395708,-0.000721379,0.0143468,0.0462481,-0.0670687,0.0659634,-0.00437036
1413393224855760384,-2.05951,-0.696258,-2.94105,0.582277,-0.117291,-0.801934,-0.0640194,-0.306734,-0.165171,-0.344095,-0.000737565,0.0143426,0.0463041,-0.0639404,0.0654996,-0.00439288
1413393224905760512,-2.06129,-0.686177,-3.43145,0.581796,-0.122942,-0.801191,-0.0670154,-0.302174,-0.146923,-0.282522,-0.000735657,0.0143357,0.046348,-0.0617145,0.0652696,-0.00339763
1413393224955760384,-2.0704,-0.686196,-3.61583,0.580061,-0.128716,-0.801299,-0.0698656,-0.269177,-0.124182,-0.214508,-0.000740017,0.0143532,0.0464216,-0.0602911,0.065075,-0.00338033
1413393225005760512,-2.06439,-0.669036,-4.45005,0.579046,-0.132058,-0.801143,-0.0737373,-0.269939,-0.134581,-0.140558,-0.000740583,0.0142717,0.0464974,-0.0561084,0.0650013,-0.00212294
1413393225055760384,-2.06713,-0.661622,-4.97096,0.577917,-0.133995,-0.801269,-0.077621,-0.269621,-0.117482,-0.12318,-0.000715016,0.014214,0.046571,-0.0525711,0.0644337,-0.00100614
1413393225105760512,-2.07281,-0.65615,-5.38331,0.577362,-0.136497,-0.800932,-0.0808117,-0.261882,-0.0892021,-0.053462,-0.000751971,0.0141365,0.0466507,-0.0488983,0.0636866,7.72268e-05
1413393225155760384,-2.08546,-0.659395,-5.4402,0.577288,-0.137902,-0.800486,-0.0833351,-0.26551,-0.0997718,-0.0698134,-0.000739233,0.0141078,0.0466718,-0.0466337,0.0634026,-0.000623035
1413393225205760512,-2.09801,-0.66218,-5.50668,0.57697,-0.139895,-0.800382,-0.0832103,-0.26302,-0.0806638,-0.0573509,-0.0007475,0.0140692,0.0467193,-0.0445444,0.062756,-0.00149046
1413393225255760384,-2.11103,-0.666182,-5.49875,0.576012,-0.140544,-0.800764,-0.0850577,-0.251933,-0.0676472,-0.0444708,-0.000776565,0.0140471,0.0467541,-0.0444968,0.0629042,-0.0014427
1413393225305760512,-2.12382,-0.66945,-5.50043,0.574983,-0.142435,-0.801071,-0.0859783,-0.255647,-0.0677141,-0.0663574,-0.000809298,0.0140401,0.0467639,-0.0443638,0.062921,-0.00142412
1413393225355760384,-2.13658,-0.671752,-5.50345,0.574684,-0.145091,-0.800553,-0.0883231,-0.240201,-0.0393693,-0.0423976,-0.000839527,0.0140274,0.0467908,-0.0443905,0.0630224,-0.00128709
1413393225405760512,-2.14881,-0.673402,-5.50518,0.573728,-0.151173,-0.800021,-0.0891609,-0.246807,-0.02129,-0.0194812,-0.000839463,0.0140275,0.0467909,-0.0443378,0.0630071,-0.00125581
1413393225455760384,-2.16279,-0.672998,-5.51649,0.572208,-0.157862,-0.799596,-0.0911328,-0.262508,-0.0113599,-0.00360782,-0.000981555,0.0140402,0.0468086,-0.0442348,0.0636978,-0.000617697
1413393225505760512,-2.17547,-0.672615,-5.51705,0.571888,-0.167076,-0.797704,-0.0932648,-0.244473,0.019501,0.0096501,-0.000981504,0.0140402,0.0468087,-0.0442245,0.0637057,-0.000627498
1413393225555760384,-2.1882,-0.670749,-5.52722,0.569685,-0.177159,-0.796683,-0.0968006,-0.23203,0.0343341,0.0209765,-0.00103067,0.0140446,0.0468304,-0.0442277,0.0640548,-0.000182661
1413393225605760512,-2.20062,-0.667941,-5.52956,0.568302,-0.18871,-0.794461,-0.101261,-0.24447,0.0632642,0.0518901,-0.00106364,0.0140527,0.0468484,-0.044199,0.0643364,0.000173755
1413393225655760384,-2.21283,-0.663216,-5.5436,0.567409,-0.200336,-0.791444,-0.107378,-0.225672,0.0959092,0.0612176,-0.00111799,0.0140694,0.0468909,-0.0445022,0.0650589,0.000989992
1413393225705760512,-2.22428,-0.658703,-5.52007,0.565845,-0.212257,-0.788355,-0.115165,-0.214353,0.119499,0.0847439,-0.00113985,0.0140876,0.0469431,-0.045516,0.0660257,0.00179137
1413393225755760384,-2.23587,-0.652803,-5.50313,0.564101,-0.22262,-0.78516,-0.125519,-0.216315,0.12896,0.0899541,-0.00116964,0.0141245,0.0469929,-0.0464098,0.067109,0.00259631
1413393225805760512,-2.24678,-0.645287,-5.4786,0.562469,-0.232863,-0.781486,-0.136689,-0.190177,0.161277,0.115031,-0.00121001,0.0142021,0.0470048,-0.0475278,0.0685586,0.00197293
1413393225855760384,-2.25686,-0.637182,-5.46209,0.559675,-0.242828,-0.777918,-0.150475,-0.172484,0.165094,0.0550886,-0.001226,0.0142568,0.0470713,-0.0482788,0.0697601,0.00177248
1413393225905760512,-2.26775,-0.629843,-5.42184,0.557918,-0.251361,-0.774058,-0.162422,-0.167876,0.165691,-0.0397244,-0.00125716,0.014318,0.0471468,-0.0485707,0.0707991,0.00121714
1413393225955760384,-2.27754,-0.620659,-5.41371,0.554278,-0.260505,-0.770631,-0.176185,-0.172787,0.176071,-0.147651,-0.0013136,0.0143534,0.0471975,-0.0489206,0.0720732,0.00015355
1413393226005760512,-2.28747,-0.611982,-5.40775,0.551943,-0.269272,-0.766311,-0.18873,-0.1683,0.172239,-0.223941,-0.00136568,0.0143692,0.047289,-0.0487809,0.0729111,-0.000421892
1413393226055760384,-2.29868,-0.604199,-5.39908,0.549565,-0.279352,-0.761671,-0.199495,-0.175169,0.164947,-0.24141,-0.00136164,0.01442,0.0474386,-0.0494874,0.0741147,-0.00011207
1413393226105760512,-2.31152,-0.5986,-5.3574,0.546943,-0.289896,-0.757565,-0.207145,-0.189288,0.143177,-0.236544,-0.0013235,0.0145235,0.0475725,-0.0499117,0.0763305,-0.000752969
1413393226155760384,-2.32223,-0.591999,-5.36432,0.54588,-0.300266,-0.752512,-0.213497,-0.19405,0.140655,-0.200763,-0.0013019,0.0145107,0.0477015,-0.0499215,0.0762519,0.000493461
1413393226205760512,-2.33374,-0.585613,-5.37318,0.544018,-0.310197,-0.748123,-0.219395,-0.197847,0.117338,-0.137224,-0.00128475,0.0145344,0.0478392,-0.0500345,0.0764531,0.00119374
1413393226255760384,-2.34454,-0.578905,-5.42241,0.542191,-0.319314,-0.744601,-0.222793,-0.217023,0.120008,-0.067739,-0.0012416,0.0145261,0.0479885,-0.0500517,0.0762251,0.00264918
1413393226305760512,-2.35693,-0.571773,-5.45026,0.540522,-0.327008,-0.741561,-0.22581,-0.203921,0.118308,-0.052446,-0.00123012,0.0145692,0.0481052,-0.0509454,0.0766947,0.00335391
1413393226355760384,-2.36883,-0.56487,-5.48157,0.538067,-0.335041,-0.739744,-0.225855,-0.217416,0.115876,-0.0151108,-0.00122457,0.0145941,0.0482077,-0.0511496,0.0769831,0.0040368
1413393226405760512,-2.3808,-0.558512,-5.50701,0.533978,-0.341294,-0.739411,-0.227284,-0.212653,0.118184,-0.0265753,-0.00117244,0.014635,0.0483234,-0.0518637,0.0766878,0.00510474
1413393226455760384,-2.39347,-0.551901,-5.52999,0.529816,-0.347066,-0.739818,-0.226958,-0.216021,0.122063,-0.0578756,-0.00113646,0.0146478,0.0484095,-0.0518437,0.0766843,0.00593173
1413393226505760512,-2.40757,-0.546991,-5.51966,0.525907,-0.352029,-0.740273,-0.226921,-0.229058,0.132141,-0.111786,-0.0010759,0.0146731,0.0484964,-0.0522876,0.0764483,0.00683331
1413393226555760384,-2.42137,-0.542189,-5.51061,0.523364,-0.356036,-0.740317,-0.226406,-0.233229,0.144581,-0.15292,-0.00102282,0.0146962,0.0485943,-0.0527239,0.0763716,0.00731026
1413393226605760512,-2.43364,-0.53509,-5.52056,0.520836,-0.359281,-0.740676,-0.225935,-0.230964,0.165633,-0.183426,-0.000992418,0.014736,0.0486691,-0.0532414,0.0763649,0.007818
1413393226655760384,-2.44621,-0.526486,-5.52871,0.519443,-0.36103,-0.740444,-0.227112,-0.240941,0.185677,-0.167786,-0.000953824,0.0147521,0.0487232,-0.0529871,0.0763598,0.00808715
1413393226705760512,-2.45958,-0.51612,-5.54322,0.519126,-0.358279,-0.740221,-0.232848,-0.255722,0.206492,-0.161635,-0.000917158,0.014769,0.0488219,-0.0529525,0.076489,0.0085134
1413393226755760384,-2.47303,-0.504928,-5.55488,0.519861,-0.355346,-0.739155,-0.239007,-0.254598,0.230218,-0.138469,-0.000879441,0.0147948,0.0488877,-0.0530439,0.0766439,0.00868518
1413393226805760512,-2.48684,-0.493339,-5.56663,0.519501,-0.352129,-0.739197,-0.24436,-0.283063,0.225797,-0.118972,-0.000834633,0.0148248,0.0489713,-0.0532899,0.0767838,0.00886396
1413393226855760384,-2.50074,-0.481118,-5.58544,0.519543,-0.349135,-0.739441,-0.247807,-0.291116,0.231637,-0.136119,-0.000815939,0.0148777,0.0490408,-0.0528665,0.0772959,0.00890666
1413393226905760512,-2.51584,-0.469074,-5.6,0.518643,-0.346012,-0.740143,-0.251941,-0.302039,0.232028,-0.116584,-0.000771493,0.0148983,0.0490916,-0.0523944,0.0777641,0.00884397
1413393226955760384,-2.53116,-0.4572,-5.61656,0.518154,-0.344441,-0.740647,-0.253616,-0.327658,0.223952,-0.0946161,-0.000722944,0.0149309,0.0491909,-0.0520428,0.0782388,0.00862362
1413393227005760512,-2.54643,-0.445474,-5.63155,0.518009,-0.343093,-0.741055,-0.254542,-0.337487,0.222283,-0.0887236,-0.000711412,0.0149529,0.0492431,-0.0515264,0.0786116,0.00810328
1413393227055760384,-2.56272,-0.433787,-5.64826,0.518749,-0.342714,-0.740685,-0.25462,-0.355255,0.221183,-0.0770797,-0.000672624,0.0149802,0.0493259,-0.0509657,0.079008,0.00763665
1413393227105760512,-2.5791,-0.422546,-5.66352,0.520548,-0.342572,-0.739607,-0.254275,-0.366364,0.210673,-0.0774821,-0.000657371,0.0149886,0.0493762,-0.0500659,0.0793824,0.00689122
1413393227155760384,-2.59679,-0.411947,-5.6767,0.522421,-0.343611,-0.738411,-0.252501,-0.377265,0.205583,-0.0618256,-0.000615629,0.015017,0.0494406,-0.0490576,0.0797422,0.00619458
1413393227205760512,-2.61403,-0.401784,-5.6914,0.524307,-0.34465,-0.737228,-0.250629,-0.38286,0.202261,-0.0409725,-0.000580826,0.0150227,0.049495,-0.0485077,0.0798506,0.005278
1413393227255760384,-2.6321,-0.39166,-5.7035,0.527059,-0.346945,-0.735336,-0.247224,-0.384493,0.200894,-0.0165553,-0.000550401,0.0150441,0.0495557,-0.0479107,0.0801048,0.00480559
1413393227305760512,-2.64733,-0.379818,-5.74584,0.527032,-0.34863,-0.735216,-0.245261,-0.386624,0.201028,-0.0258508,-0.000557661,0.0151051,0.0496052,-0.0471838,0.0804709,0.00359085
1413393227355760384,-2.66563,-0.369881,-5.75447,0.528185,-0.349918,-0.734062,-0.244399,-0.384947,0.197196,-0.016362,-0.000530829,0.0151196,0.0496598,-0.0463346,0.0804012,0.00276229
1413393227405760512,-2.6838,-0.359668,-5.76429,0.527877,-0.351512,-0.73398,-0.243021,-0.378025,0.203256,-0.010326,-0.000512152,0.0151,0.0497403,-0.0458669,0.0803477,0.00204
1413393227455760384,-2.70164,-0.349235,-5.77452,0.528122,-0.353178,-0.733444,-0.241687,-0.375002,0.207113,-0.0100779,-0.000512119,0.0151082,0.0497926,-0.0450777,0.0803006,0.00122986
1413393227505760512,-2.72009,-0.338472,-5.7769,0.528298,-0.354274,-0.732943,-0.241218,-0.369498,0.20937,-0.0120776,-0.000501758,0.0150985,0.0498379,-0.0454222,0.0799916,0.000667868
1413393227555760384,-2.73766,-0.327161,-5.77908,0.529242,-0.356197,-0.731259,-0.241426,-0.357055,0.222601,-0.00657994,-0.000512276,0.015114,0.0498741,-0.0453338,0.0797212,5.12576e-05
1413393227605760512,-2.75519,-0.31546,-5.7803,0.529795,-0.359353,-0.729152,-0.241911,-0.345456,0.227424,-0.00311575,-0.000524775,0.0151111,0.049898,-0.0455311,0.0795479,-0.000254521
1413393227655760384,-2.77237,-0.303608,-5.77496,0.529092,-0.362798,-0.727338,-0.243763,-0.329487,0.238596,0.00548201,-0.000537696,0.0151081,0.0499177,-0.045907,0.0794811,-0.000347608
1413393227705760512,-2.78933,-0.291353,-5.76653,0.527527,-0.367595,-0.725215,-0.246278,-0.311149,0.248565,0.00178187,-0.000562593,0.0151062,0.0499294,-0.0462491,0.0795756,-0.00021467
1413393227755760384,-2.80581,-0.278814,-5.75284,0.526103,-0.373406,-0.722293,-0.249153,-0.29575,0.254522,-0.0101243,-0.000578413,0.015089,0.0499481,-0.0470498,0.0796361,-7.53273e-05
1413393227805760512,-2.82058,-0.265954,-5.7519,0.523759,-0.378801,-0.71952,-0.253924,-0.281993,0.254225,-0.0274405,-0.000585302,0.0150767,0.0499598,-0.0473837,0.0796875,7.05612e-05
1413393227855760384,-2.83468,-0.252771,-5.74801,0.522601,-0.386731,-0.715005,-0.25709,-0.26269,0.266326,-0.0277251,-0.000598573,0.0150756,0.0499724,-0.0479355,0.0797817,1.58862e-05
1413393227905760512,-2.84778,-0.239084,-5.74502,0.520367,-0.394357,-0.710781,-0.26171,-0.255216,0.269491,-0.0151609,-0.000607202,0.0150759,0.0499945,-0.0484028,0.0798282,-0.000260497
1413393227955760384,-2.85971,-0.2254,-5.74299,0.51898,-0.402492,-0.705257,-0.26697,-0.228658,0.272876,-0.0179642,-0.000619962,0.0150784,0.0500045,-0.0487488,0.0798236,-0.000515643
1413393228005760512,-2.87183,-0.211355,-5.74132,0.51636,-0.411818,-0.699596,-0.272661,-0.198698,0.284269,-0.0340288,-0.000633291,0.0150959,0.0500254,-0.0489357,0.0801302,-0.000135363
1413393228055760384,-2.88215,-0.196878,-5.74032,0.512975,-0.420735,-0.693831,-0.280068,-0.192831,0.286032,-0.0417995,-0.000634142,0.0151118,0.0500385,-0.0492784,0.0802859,-0.000111372
1413393228105760512,-2.89187,-0.181879,-5.7412,0.50987,-0.430401,-0.6877,-0.286106,-0.174102,0.295057,-0.0177158,-0.000622267,0.0151436,0.0500481,-0.0496793,0.0805825,-0.000228444
1413393228155760384,-2.90082,-0.166693,-5.73943,0.505036,-0.439422,-0.682441,-0.293465,-0.150817,0.298834,-0.0399081,-0.000633357,0.015156,0.050069,-0.0502991,0.0808411,-8.56855e-07
1413393228205760512,-2.90863,-0.151485,-5.74073,0.500476,-0.448922,-0.677124,-0.299159,-0.146156,0.301692,-0.0292699,-0.000637461,0.0151705,0.0500776,-0.0504159,0.080966,3.84356e-05
1413393228255760384,-2.91676,-0.134539,-5.74466,-0.495332,0.455864,0.673306,0.305766,-0.134613,0.309534,-0.0196371,-0.000659835,0.0152363,0.0501228,-0.0511238,0.0815216,-0.000133171
1413393228305760512,-2.9245,-0.118958,-5.74551,-0.490927,0.462241,0.669271,0.31209,-0.127692,0.311547,-0.0142037,-0.000653109,0.0152451,0.0501467,-0.0510131,0.0817142,0.000245755
1413393228355760384,-2.93258,-0.101576,-5.74405,-0.486735,0.468001,0.665598,0.317873,-0.1267,0.321245,-0.00185225,-0.000652443,0.0152942,0.0501607,-0.051353,0.0822128,0.00011984
1413393228405760512,-2.94006,-0.0815831,-5.74778,-0.4822,0.473918,0.661903,0.323683,-0.110452,0.334918,0.00667376,-0.000680492,0.0154151,0.0501871,-0.0520104,0.0829987,-0.000682127
1413393228455760384,-2.94794,-0.065194,-5.74111,-0.478686,0.48061,0.656896,0.329183,-0.107664,0.338247,0.0145841,-0.000671602,0.0154332,0.050263,-0.0513587,0.0833273,-0.000377862
1413393228505760512,-2.95493,-0.0485864,-5.74181,-0.476812,0.486159,0.651041,0.335328,-0.117272,0.333805,0.0134664,-0.000663528,0.0154359,0.0503222,-0.0507859,0.0834807,-0.000171034
1413393228555760384,-2.96225,-0.0301689,-5.7388,-0.474227,0.492175,0.645746,0.34042,-0.0968892,0.337712,0.00863667,-0.000651815,0.0155132,0.0503616,-0.0514901,0.0837638,2.87929e-05
1413393228605760512,-2.96936,-0.0117223,-5.73908,-0.470129,0.498846,0.64138,0.344621,-0.101229,0.339134,0.0138912,-0.000651486,0.0155787,0.050424,-0.0525133,0.0841221,0.000534039
1413393228655760384,-2.97694,0.00767294,-5.74234,-0.467289,0.504643,0.637487,0.347255,-0.111003,0.34021,0.0210398,-0.00065399,0.0156671,0.0504857,-0.0530731,0.0846183,0.000574843
1413393228705760512,-2.98124,0.0292323,-5.75145,-0.463846,0.50928,0.635174,0.349336,-0.0929419,0.352086,0.0162667,-0.000726689,0.0157649,0.0505302,-0.053659,0.0853004,-0.00052013
1413393228755760384,-2.98735,0.0476426,-5.74673,-0.461093,0.513468,0.633086,0.350637,-0.102403,0.353728,0.0238705,-0.000754224,0.0158128,0.0505797,-0.0538264,0.0854516,0.00017981
1413393228805760512,-2.9944,0.0664862,-5.74473,-0.458293,0.518191,0.631936,0.349433,-0.10799,0.370808,0.00695476,-0.000779707,0.0158619,0.0506598,-0.0536084,0.0856664,9.48985e-05
1413393228855760384,-3.00104,0.0849204,-5.74435,-0.455854,0.522235,0.631242,0.347853,-0.095726,0.37819,-0.00632193,-0.000798184,0.0158791,0.0507365,-0.0534563,0.0856519,0.000451547
1413393228905760512,-3.01176,0.100455,-5.72849,-0.452118,0.52607,0.63173,0.34606,-0.0999175,0.383543,-0.00557937,-0.000708701,0.0158616,0.0508832,-0.0529627,0.0854631,0.00132754
1413393228955760384,-3.0174,0.119855,-5.72945,-0.450909,0.527926,0.631523,0.345186,-0.0997038,0.394836,-0.0176056,-0.000718577,0.0158786,0.0509484,-0.0530705,0.0854545,0.00146976
1413393229005760512,-3.02382,0.14095,-5.73475,-0.448881,0.527807,0.632129,0.346899,-0.0851928,0.419838,-0.0100106,-0.000706774,0.0159162,0.0510404,-0.0531549,0.0856611,0.00172763
1413393229055760384,-3.03139,0.163129,-5.73555,-0.445584,0.525268,0.634003,0.351551,-0.0990389,0.443533,-0.0322555,-0.000670491,0.0159683,0.0511336,-0.0529779,0.085931,0.00173869
1413393229105760512,-3.04264,0.185934,-5.76086,-0.443677,0.521784,0.635117,0.357098,-0.109495,0.448171,-0.0556913,-0.000518463,0.0159874,0.0512692,-0.0528565,0.0859999,0.0023003
1413393229155760384,-3.05033,0.209684,-5.76422,-0.442088,0.519033,0.636185,0.361152,-0.112413,0.451984,-0.0457455,-0.000535471,0.0160304,0.0513585,-0.0536786,0.0860311,0.00271398
1413393229205760512,-3.05779,0.232937,-5.7681,-0.440795,0.515989,0.637505,0.36475,-0.136424,0.460014,-0.076198,-0.000534703,0.0160552,0.0513998,-0.0537625,0.0861346,0.00285236
1413393229255760384,-3.06609,0.256588,-5.7743,-0.440066,0.513026,0.638827,0.367486,-0.151968,0.463302,-0.0934696,-0.00052329,0.0161151,0.0515,-0.053695,0.0861964,0.00291676
1413393229305760512,-3.07394,0.280468,-5.77959,-0.440256,0.510592,0.639312,0.369798,-0.158103,0.465685,-0.106705,-0.000534475,0.0161539,0.051587,-0.0540462,0.0861902,0.00310771
1413393229355760384,-3.08445,0.304032,-5.78191,-0.441025,0.508335,0.639619,0.371457,-0.196491,0.472702,-0.122199,-0.000482175,0.0161945,0.0517199,-0.053772,0.0863906,0.00339416
1413393229405760512,-3.09378,0.328118,-5.78429,-0.443183,0.507492,0.639054,0.371013,-0.212033,0.475608,-0.13566,-0.00050789,0.016254,0.0517876,-0.0550784,0.0862981,0.00416888
1413393229455760384,-3.1048,0.351799,-5.79433,-0.447346,0.507998,0.636862,0.369088,-0.219412,0.471625,-0.133956,-0.000528013,0.0162695,0.0518526,-0.0549132,0.0863162,0.0044019
1413393229505760512,-3.11624,0.375136,-5.80475,-0.45229,0.509343,0.634352,0.365513,-0.237306,0.468052,-0.137512,-0.000537162,0.0162894,0.051926,-0.054208,0.0862378,0.00445343
1413393229555760384,-3.12897,0.397753,-5.80382,-0.454909,0.511125,0.633164,0.361818,-0.238869,0.465828,-0.123822,-0.000534571,0.0162544,0.0520023,-0.0538059,0.0861566,0.00488958
1413393229605760512,-3.14235,0.421099,-5.81325,-0.457261,0.514007,0.631777,0.357166,-0.223131,0.465495,-0.112824,-0.000518817,0.0162509,0.0520517,-0.0533465,0.0861703,0.00478198
1413393229655760384,-3.1537,0.4442,-5.82825,-0.458361,0.516705,0.631577,0.352182,-0.228689,0.459682,-0.109084,-0.000528093,0.0162618,0.0521044,-0.0524734,0.0861864,0.00475037
1413393229705760512,-3.16434,0.467081,-5.84465,-0.457585,0.518191,0.63278,0.348832,-0.207877,0.466181,-0.0948905,-0.000546524,0.0162423,0.0521585,-0.0517107,0.0862246,0.00491412
1413393229755760384,-3.17394,0.490925,-5.87439,-0.45674,0.519316,0.633971,0.346092,-0.202083,0.467594,-0.0774276,-0.000564171,0.016221,0.0522399,-0.0498609,0.0864442,0.00449885
1413393229805760512,-3.18457,0.514624,-5.87692,-0.454344,0.521171,0.635929,0.34285,-0.192418,0.485332,-0.0587523,-0.00056011,0.0162385,0.0522767,-0.0495888,0.0865475,0.00450278
1413393229855760384,-3.19945,0.540913,-5.89315,-0.450785,0.523133,0.6378,0.341081,-0.181854,0.50147,-0.0380297,-0.000450239,0.0161927,0.052324,-0.0486025,0.0867063,0.0039013
1413393229905760512,-3.20995,0.566728,-5.90045,-0.448372,0.524258,0.639586,0.339183,-0.176724,0.514811,-0.0215861,-0.000422677,0.0161913,0.0523752,-0.0474685,0.0869741,0.00300469
1413393229955760384,-3.21944,0.593432,-5.90288,-0.446811,0.523795,0.641197,0.338918,-0.173163,0.546278,-0.00856139,-0.000411134,0.0162092,0.0524334,-0.0468382,0.0871276,0.0027676
1413393230005760512,-3.22851,0.621447,-5.9067,-0.444755,0.521718,0.643161,0.341097,-0.160433,0.571139,0.0402256,-0.000403075,0.0161977,0.0524826,-0.0467096,0.0872617,0.00282526
1413393230055760384,-3.23783,0.65054,-5.90716,-0.443895,0.516985,0.644649,0.346572,-0.174479,0.594334,0.0424737,-0.000394627,0.0161974,0.0525237,-0.0468266,0.0873808,0.0030321
1413393230105760512,-3.24719,0.680572,-5.90622,-0.443247,0.512571,0.645939,0.351519,-0.173924,0.609074,0.0328166,-0.000377468,0.0162008,0.0525595,-0.0470856,0.0874366,0.00330062
1413393230155760384,-3.25703,0.711634,-5.89829,-0.443021,0.50921,0.64671,0.355252,-0.187258,0.623462,0.0305728,-0.00035808,0.0162571,0.0526198,-0.0473286,0.0873308,0.00326292
1413393230205760512,-3.26823,0.743296,-5.8903,-0.44244,0.506437,0.647803,0.357939,-0.21074,0.631059,0.013393,-0.000318921,0.0163248,0.0526239,-0.0478705,0.0871613,0.00334966
1413393230255760384,-3.27969,0.775025,-5.89036,-0.443517,0.503902,0.647831,0.360126,-0.22546,0.641591,-0.00556127,-0.000291424,0.0163701,0.0526913,-0.0480458,0.0871573,0.00343813
1413393230305760512,-3.29231,0.806693,-5.88288,-0.445805,0.502208,0.646977,0.361201,-0.244113,0.642656,-0.0129887,-0.000269376,0.0163958,0.0527413,-0.0474056,0.0872403,0.00298232
1413393230355760384,-3.30574,0.838249,-5.87675,-0.447696,0.503084,0.646016,0.359359,-0.255563,0.633232,-0.049141,-0.000237159,0.0163974,0.0527785,-0.0468746,0.087288,0.00252503
1413393230405760512,-3.31914,0.869763,-5.87424,-0.45048,0.504017,0.644216,0.3578,-0.26569,0.635409,-0.0528945,-0.000185632,0.0164197,0.0528243,-0.0464475,0.0871923,0.00199822
1413393230455760384,-3.33319,0.901474,-5.8733,-0.451691,0.506281,0.642479,0.356196,-0.268541,0.6445,-0.0464868,-0.000138778,0.0164515,0.0528675,-0.0460802,0.0871526,0.0016377
1413393230505760512,-3.34778,0.933519,-5.87311,-0.452579,0.510248,0.639543,0.354689,-0.270194,0.641597,-0.0221672,-8.57329e-05,0.016499,0.0529123,-0.0457019,0.0870573,0.00128238
1413393230555760384,-3.36227,0.966159,-5.87242,-0.452407,0.515563,0.635784,0.353981,-0.257391,0.640423,-0.0390719,-5.43837e-05,0.0165434,0.0529294,-0.0452599,0.0869864,0.000880354
1413393230605760512,-3.37609,0.998556,-5.87007,-0.451873,0.521923,0.630856,0.354158,-0.242042,0.652774,-0.0243571,-3.40592e-05,0.0165901,0.0529664,-0.0449382,0.0869358,0.000500479
1413393230655760384,-3.38798,1.0318,-5.86942,-0.450091,0.52915,0.625702,0.354847,-0.234618,0.661071,7.24263e-05,-4.93702e-05,0.016652,0.0529882,-0.0441714,0.0869088,0.000159721
1413393230705760512,-3.39788,1.06556,-5.86854,-0.448075,0.536027,0.619955,0.357155,-0.216381,0.691084,0.0516943,-6.08477e-05,0.0166783,0.0530194,-0.0430304,0.086782,-0.000370913
1413393230755760384,-3.40786,1.09985,-5.8656,-0.445432,0.543399,0.613745,0.360034,-0.191953,0.696865,0.0642705,-7.65629e-05,0.0167142,0.0530635,-0.0422475,0.0868253,-0.00062381
1413393230805760512,-3.41768,1.13426,-5.85811,-0.442272,0.550737,0.607299,0.363692,-0.181335,0.706328,0.0798381,-7.72805e-05,0.0167321,0.0531025,-0.0410769,0.0868221,-0.00100154
1413393230855760384,-3.42907,1.17038,-5.85408,-0.437385,0.558547,0.600569,0.368831,-0.153914,0.723108,0.0928963,7.9392e-06,0.0167886,0.0531423,-0.0398696,0.0871198,-0.00133604
1413393230905760512,-3.43981,1.20713,-5.84655,-0.431118,0.565652,0.594219,0.375605,-0.146025,0.733294,0.124604,7.7237e-05,0.0168282,0.0532032,-0.0388712,0.0873352,-0.00144517
1413393230955760384,-3.44513,1.24345,-5.8417,-0.423761,0.571062,0.589272,0.383501,-0.128077,0.736905,0.140626,6.7414e-05,0.0168437,0.0532283,-0.0380556,0.0872845,-0.00193448
1413393231005760512,-3.45112,1.28051,-5.83651,-0.415397,0.575162,0.585474,0.392242,-0.114576,0.741725,0.155579,7.58334e-05,0.0168571,0.0532797,-0.037729,0.0872675,-0.00208575
1413393231055760384,-3.4544,1.3173,-5.83977,-0.407537,0.577801,0.582803,0.400502,-0.116203,0.756192,0.144925,3.15522e-05,0.0168523,0.0533284,-0.0367252,0.0870467,-0.00191109
1413393231105760512,-3.45924,1.3546,-5.83325,-0.401122,0.579852,0.58001,0.407997,-0.137296,0.760209,0.143967,3.46924e-05,0.0168808,0.0533688,-0.0360506,0.0871269,-0.00226062
1413393231155760384,-3.46545,1.39265,-5.82832,-0.395607,0.581595,0.577689,0.414149,-0.147299,0.767514,0.156845,5.3018e-05,0.0168986,0.0534167,-0.0351231,0.0870928,-0.00271222
1413393231205760512,-3.47306,1.43135,-5.82235,-0.391698,0.584373,0.57507,0.417582,-0.161663,0.779986,0.155315,4.88939e-05,0.016936,0.0534858,-0.0343341,0.0871735,-0.00319572
1413393231255760384,-3.48173,1.47048,-5.815,-0.388023,0.586053,0.573266,0.421125,-0.196769,0.785599,0.147616,6.50442e-05,0.0169546,0.053533,-0.0334261,0.0872311,-0.00367677
1413393231305760512,-3.49267,1.50998,-5.80502,-0.387211,0.588584,0.570217,0.422481,-0.21085,0.783048,0.100247,0.000103524,0.0170006,0.0535797,-0.0325388,0.0874057,-0.00418556
1413393231355760384,-3.50397,1.54898,-5.79729,-0.387756,0.591699,0.56653,0.42259,-0.226055,0.787183,0.0489815,0.000135163,0.0170123,0.0536102,-0.0317613,0.0871732,-0.00476691
1413393231405760512,-3.51469,1.58828,-5.79782,-0.390402,0.594176,0.562568,0.42197,-0.24431,0.794241,0.0074485,0.00015373,0.0169899,0.0536676,-0.0298666,0.0868632,-0.00573253
1413393231455760384,-3.52665,1.62791,-5.7993,-0.395248,0.596053,0.557418,0.421645,-0.239825,0.795491,-0.0259006,0.000155355,0.0169918,0.0537003,-0.0293244,0.0868409,-0.00603144
1413393231505760512,-3.53927,1.66772,-5.80143,-0.401995,0.596683,0.551282,0.422443,-0.249361,0.784901,-0.0705343,0.000172562,0.0170058,0.0537345,-0.0287184,0.0869278,-0.0062101
1413393231555760384,-3.55208,1.70709,-5.8062,-0.410225,0.595202,0.544904,0.424888,-0.251125,0.774757,-0.118555,0.000193252,0.0170072,0.0537811,-0.0286015,0.0869296,-0.00629691
1413393231605760512,-3.56445,1.74569,-5.8161,-0.417751,0.593587,0.538844,0.427536,-0.225674,0.747969,-0.14962,0.000207463,0.0170047,0.0538297,-0.0280853,0.0869304,-0.00631369
1413393231655760384,-3.57627,1.78279,-5.82766,-0.422615,0.593065,0.53388,0.429701,-0.222376,0.717813,-0.166754,0.000227042,0.017003,0.0538694,-0.027038,0.0869799,-0.00640796
1413393231705760512,-3.58707,1.81845,-5.84456,-0.423753,0.593346,0.531124,0.431603,-0.197322,0.685524,-0.168863,0.000242051,0.01699,0.0539209,-0.0256584,0.0870317,-0.00655758
1413393231755760384,-3.59698,1.85238,-5.86082,-0.422023,0.596075,0.528754,0.432446,-0.167869,0.653648,-0.157927,0.000256239,0.0169589,0.0539651,-0.0243443,0.0871629,-0.00658913
1413393231805760512,-3.60577,1.88444,-5.86867,-0.419492,0.600331,0.526488,0.431787,-0.167179,0.615839,-0.151659,0.000261468,0.0169506,0.0540056,-0.0229553,0.0872548,-0.00674511
1413393231855760384,-3.61354,1.91479,-5.87535,-0.417483,0.606322,0.523272,0.429265,-0.135894,0.582042,-0.139859,0.000262541,0.0169611,0.0540411,-0.0220394,0.0873235,-0.00695059
1413393231905760512,-3.62021,1.94405,-5.88178,-0.413181,0.614394,0.519863,0.426081,-0.101512,0.557786,-0.114196,0.000266575,0.01696,0.0540803,-0.021167,0.0874452,-0.00686201
1413393231955760384,-3.62527,1.97206,-5.88614,-0.409649,0.622129,0.515383,0.423703,-0.077148,0.54834,-0.0967045,0.000273406,0.0169696,0.0541218,-0.0209342,0.0875942,-0.00680716
1413393232005760512,-3.62825,1.99913,-5.89082,-0.405759,0.62957,0.510185,0.422745,-0.0312947,0.521736,-0.0863471,0.000277932,0.0169838,0.0541793,-0.0203096,0.0876473,-0.00683041
1413393232055760384,-3.6291,2.02559,-5.8937,-0.399659,0.635835,0.505909,0.424315,0.0130948,0.520985,-0.0473622,0.000278899,0.0169659,0.0542231,-0.0193947,0.087689,-0.0066667
1413393232105760512,-3.62783,2.05133,-5.89499,-0.393336,0.641491,0.50124,0.42724,0.0454649,0.499815,-0.0220126,0.000267226,0.0169709,0.0542666,-0.0190818,0.0878297,-0.00670907
1413393232155760384,-3.62517,2.07674,-5.89712,-0.386521,0.647107,0.496023,0.431064,0.0854059,0.484943,-0.0242237,0.000285522,0.0169686,0.0543094,-0.01939,0.0880209,-0.0063524
1413393232205760512,-3.62086,2.10162,-5.89744,-0.379009,0.65085,0.490811,0.438008,0.114342,0.4832,-0.0165739,0.000304173,0.0169685,0.0543455,-0.0198394,0.0881293,-0.00589553
1413393232255760384,-3.61494,2.1261,-5.89897,-0.372249,0.655263,0.484762,0.443922,0.135218,0.475479,-0.0503463,0.000300258,0.0169622,0.0543614,-0.0201938,0.0883151,-0.00555112
1413393232305760512,-3.60734,2.14978,-5.90196,-0.365974,0.659715,0.478216,0.44961,0.165876,0.465935,-0.0838576,0.000294569,0.0169535,0.0543992,-0.0204989,0.0883669,-0.00545383
1413393232355760384,-3.5988,2.17342,-5.90635,-0.360696,0.665495,0.470295,0.453693,0.182198,0.464207,-0.120818,0.000286239,0.0169577,0.0544345,-0.0207101,0.0884488,-0.00511137
1413393232405760512,-3.58927,2.19688,-5.91157,-0.354402,0.671604,0.46364,0.456493,0.207969,0.459837,-0.138229,0.000276972,0.0169551,0.0544786,-0.0212493,0.0885783,-0.00461271
1413393232455760384,-3.57808,2.21966,-5.91982,-0.348458,0.677301,0.456578,0.459758,0.230746,0.451585,-0.180297,0.000265058,0.0169437,0.0545256,-0.0219515,0.0885322,-0.00429582
1413393232505760512,-3.56598,2.24276,-5.93265,-0.343038,0.683065,0.449664,0.462114,0.248056,0.455689,-0.217066,0.000246997,0.0169413,0.0545759,-0.0229596,0.0887181,-0.00376781
1413393232555760384,-3.55378,2.26631,-5.94228,-0.338573,0.687713,0.443411,0.464549,0.265098,0.459542,-0.25655,0.000244979,0.0169459,0.0546172,-0.0231714,0.0888811,-0.00296133
1413393232605760512,-3.54068,2.28953,-5.95434,-0.334817,0.691066,0.438661,0.466801,0.274826,0.454487,-0.29073,0.000251207,0.0169461,0.0546584,-0.0233834,0.0889034,-0.00220669
1413393232655760384,-3.52655,2.31238,-5.96774,-0.33231,0.694167,0.433775,0.468554,0.304748,0.450196,-0.272111,0.00025461,0.0169409,0.054693,-0.0240468,0.0890414,-0.0014426
1413393232705760512,-3.51183,2.33546,-5.97825,-0.330112,0.696246,0.429786,0.470693,0.311763,0.454394,-0.265811,0.000265657,0.0169414,0.0547493,-0.0245498,0.0890869,-0.000227031
1413393232755760384,-3.49559,2.35814,-5.98997,-0.327185,0.697465,0.427844,0.472697,0.334689,0.446901,-0.242641,0.000269318,0.0169335,0.0547984,-0.0259964,0.0891021,0.000968942
1413393232805760512,-3.47815,2.38072,-6.00283,-0.324702,0.698783,0.426199,0.473947,0.367961,0.452448,-0.238878,0.000271449,0.0169284,0.0548185,-0.026753,0.0892468,0.00160259
1413393232855760384,-3.45962,2.40411,-6.01535,-0.32335,0.699385,0.424581,0.475432,0.377632,0.463581,-0.23004,0.000277663,0.0169309,0.0548504,-0.0275054,0.0894944,0.00239083
1413393232905760512,-3.44,2.42716,-6.02923,-0.321017,0.70034,0.424638,0.475557,0.401283,0.456605,-0.218763,0.000282113,0.0169275,0.0548781,-0.0285006,0.0896179,0.00312098
1413393232955760384,-3.41936,2.45036,-6.04025,-0.317035,0.699755,0.426062,0.477811,0.422857,0.454868,-0.173882,0.000289059,0.0169336,0.0549068,-0.0291445,0.0897887,0.00378007
1413393233005760512,-3.39774,2.47387,-6.04989,-0.313678,0.69941,0.427822,0.478958,0.433658,0.46876,-0.141649,0.000291509,0.0169319,0.0549241,-0.0300537,0.0898104,0.00433831
1413393233055760384,-3.37569,2.49783,-6.05724,-0.310265,0.698438,0.430261,0.480411,0.4441,0.478167,-0.10341,0.000315885,0.0169469,0.0549533,-0.0302912,0.0899296,0.00481853
1413393233105760512,-3.35344,2.52197,-6.061,-0.307196,0.698326,0.432283,0.480731,0.457839,0.47232,-0.0715552,0.00033445,0.0169526,0.0550007,-0.0303792,0.0899878,0.00538277
1413393233155760384,-3.33103,2.54678,-6.06164,-0.305732,0.697831,0.433213,0.481547,0.457317,0.489769,-0.0294354,0.000360652,0.0169566,0.0550373,-0.0310877,0.0901278,0.00632322
1413393233205760512,-3.30805,2.57199,-6.0602,-0.304479,0.696735,0.433968,0.483244,0.464563,0.508969,0.022202,0.000371139,0.0169563,0.0550574,-0.0318204,0.0901682,0.00698276
1413393233255760384,-3.28435,2.59788,-6.05563,-0.303796,0.695148,0.432184,0.48754,0.481009,0.50297,0.0633116,0.000370122,0.0169524,0.0550635,-0.0330442,0.0901776,0.00778067
1413393233305760512,-3.26082,2.6236,-6.04845,-0.303035,0.693802,0.429495,0.492283,0.475735,0.517864,0.108049,0.000363865,0.0169413,0.0550679,-0.0337874,0.0900521,0.0085255
1413393233355760384,-3.23692,2.64946,-6.0421,-0.302664,0.692253,0.425304,0.498294,0.481215,0.516486,0.160995,0.000367913,0.016943,0.0550688,-0.0337861,0.0901157,0.0086233
1413393233405760512,-3.21293,2.67484,-6.03395,-0.302638,0.691713,0.418955,0.504401,0.476862,0.500508,0.169567,0.000367999,0.016943,0.0550688,-0.0338154,0.0901304,0.00863182
1413393233455760384,-3.18935,2.70034,-6.0248,-0.303091,0.692939,0.410907,0.509046,0.46724,0.49917,0.217299,0.000376234,0.0169531,0.055069,-0.0340971,0.090291,0.00894571
1413393233505760512,-3.16541,2.72573,-6.01487,-0.299709,0.694567,0.40476,0.513732,0.457107,0.473152,0.260736,0.000380166,0.0169699,0.0550631,-0.0349956,0.0904617,0.00931902
1413393233555760384,-3.14325,2.75015,-6.00036,-0.296367,0.698128,0.397264,0.516687,0.449306,0.454871,0.265304,0.000411941,0.0169934,0.0550861,-0.0350594,0.090838,0.0100655
1413393233605760512,-3.1213,2.77323,-5.98309,-0.288935,0.702248,0.391531,0.519681,0.44178,0.458827,0.31067,0.000458689,0.0170128,0.0551335,-0.0350006,0.0910943,0.010762
1413393233655760384,-3.09996,2.79636,-5.96975,-0.280184,0.708112,0.385677,0.520892,0.430414,0.451622,0.343597,0.000518076,0.0170425,0.0552051,-0.0358539,0.091251,0.0118401
1413393233705760512,-3.07875,2.82038,-5.96451,-0.270702,0.715199,0.379047,0.52109,0.413152,0.448659,0.376952,0.000613222,0.017107,0.0552863,-0.03698,0.0915383,0.0134292
1413393233755760384,-3.05875,2.84501,-5.95663,-0.261318,0.718815,0.372272,0.525767,0.39911,0.453969,0.437162,0.00069252,0.0171433,0.0553451,-0.0382027,0.0914651,0.015025
1413393233805760512,-3.04195,2.86831,-5.93402,-0.256458,0.721865,0.363738,0.529939,0.370559,0.43759,0.458947,0.000721082,0.017172,0.0554104,-0.0406049,0.0906669,0.0169126
1413393233855760384,-3.02544,2.89033,-5.90676,-0.252542,0.7228,0.356358,0.53553,0.344938,0.444245,0.446837,0.000699148,0.0172079,0.0554524,-0.0425171,0.0899866,0.0180336
1413393233905760512,-3.00972,2.91217,-5.87399,-0.252342,0.724326,0.347511,0.539361,0.331518,0.43304,0.44732,0.000668846,0.0173265,0.0555171,-0.046053,0.0889906,0.0188488
1413393233955760384,-2.99419,2.93343,-5.8383,-0.250019,0.726065,0.338881,0.543581,0.328097,0.406754,0.443317,0.000630709,0.0174787,0.0555825,-0.049569,0.0882136,0.0195434
1413393234005760512,-2.98342,2.95113,-5.80593,-0.248801,0.729526,0.329879,0.545041,0.296442,0.394359,0.449446,0.000593439,0.017468,0.0557026,-0.0519774,0.0867454,0.0212235
1413393234055760384,-2.96924,2.97074,-5.78043,-0.247045,0.734071,0.320898,0.545099,0.282054,0.373434,0.435411,0.000577068,0.0174888,0.0557647,-0.0517208,0.0867563,0.0223237
1413393234105760512,-2.95606,2.9872,-5.76096,-0.243507,0.739135,0.312835,0.544536,0.27285,0.344132,0.416653,0.000544239,0.017468,0.0558613,-0.051455,0.0863699,0.0235596
1413393234155760384,-2.94221,3.00408,-5.73807,-0.239328,0.744455,0.305327,0.543402,0.261556,0.332396,0.366848,0.000531743,0.0174784,0.0558707,-0.0512994,0.0864666,0.0238171
1413393234205760512,-2.92899,3.02038,-5.72036,-0.237693,0.748175,0.297375,0.543419,0.260623,0.315095,0.330461,0.00053124,0.0174785,0.055871,-0.0513319,0.0865017,0.0238474
1413393234255760384,-2.91583,3.03564,-5.70481,-0.240287,0.748897,0.286009,0.547371,0.265677,0.291984,0.283509,0.000531246,0.0174785,0.055871,-0.0513531,0.0865316,0.0238684
1413393234305760512,-2.90256,3.04967,-5.69158,-0.245928,0.748207,0.272702,0.552575,0.265256,0.266412,0.246699,0.000531245,0.0174785,0.055871,-0.0513635,0.0865598,0.0238817
1413393234355760384,-2.88924,3.06189,-5.67992,-0.253564,0.747281,0.257745,0.557534,0.267478,0.219094,0.22141,0.000531258,0.0174785,0.055871,-0.0513668,0.0865846,0.0238913
1413393234405760512,-2.87569,3.07125,-5.67007,-0.259242,0.746154,0.243275,0.562908,0.276565,0.153862,0.17094,0.000531271,0.0174785,0.055871,-0.0513668,0.0866023,0.0238968
1413393234455760384,-2.86116,3.07759,-5.65798,-0.263114,0.746009,0.230346,0.56673,0.270265,0.0943325,0.141466,0.000505185,0.0175006,0.0558887,-0.0508623,0.0867825,0.0245404
1413393234505760512,-2.84671,3.08041,-5.63491,-0.262342,0.746121,0.22083,0.570713,0.268378,0.00896366,0.107992,0.000473447,0.0175311,0.0559221,-0.0500284,0.0869559,0.0254337
1413393234555760384,-2.83195,3.07907,-5.62608,-0.257575,0.746774,0.212932,0.575017,0.270384,-0.0922086,0.15638,0.000451819,0.017563,0.055946,-0.0492106,0.0872131,0.0257587
1413393234605760512,-2.81783,3.07273,-5.61868,-0.244317,0.747058,0.210282,0.581374,0.27548,-0.169409,0.161864,0.00042497,0.0175832,0.0559703,-0.0485583,0.0873226,0.0259244
1413393234655760384,-2.80398,3.06189,-5.60966,-0.223388,0.74801,0.212496,0.587728,0.25535,-0.258833,0.23439,0.000400003,0.0175839,0.0559992,-0.0474836,0.08717,0.0261871
1413393234705760512,-2.79231,3.0473,-5.59471,-0.199446,0.750401,0.216392,0.591857,0.207838,-0.338652,0.385162,0.000382069,0.0175916,0.0560223,-0.0469897,0.0872049,0.0265828
1413393234755760384,-2.78257,3.03029,-5.5746,-0.17876,0.754759,0.217751,0.592426,0.164745,-0.373971,0.411815,0.000367858,0.0176104,0.0560388,-0.0467572,0.0874396,0.0268245
1413393234805760512,-2.77454,3.01216,-5.5534,-0.158594,0.760827,0.21864,0.590074,0.129827,-0.382921,0.411843,0.000359443,0.0176289,0.0560612,-0.0464765,0.0876294,0.0271155
1413393234855760384,-2.76761,2.99484,-5.5342,-0.144285,0.768439,0.215355,0.585069,0.10494,-0.3809,0.343921,0.000345094,0.0176665,0.0561048,-0.0458941,0.0879883,0.027697
1413393234905760512,-2.76099,2.98014,-5.51326,-0.136479,0.7753,0.207511,0.580708,0.087557,-0.365317,0.259268,0.000324294,0.0177303,0.0561692,-0.0448978,0.088582,0.0286613
1413393234955760384,-2.75541,2.96724,-5.49807,-0.131106,0.781112,0.197943,0.577489,0.0692986,-0.343174,0.157652,0.000318551,0.0177932,0.056236,-0.0437409,0.0891732,0.0297277
1413393235005760512,-2.75305,2.95441,-5.49867,-0.129526,0.786516,0.185391,0.57467,0.0537483,-0.328328,0.0580848,0.000323845,0.0178005,0.0563127,-0.0429135,0.0891719,0.0312392
1413393235055760384,-2.7529,2.94152,-5.5135,-0.129063,0.790441,0.171673,0.57365,0.0455746,-0.319153,-0.0414076,0.000324718,0.0177665,0.056401,-0.041741,0.0887577,0.0331473
1413393235105760512,-2.75125,2.92782,-5.53013,-0.127622,0.794008,0.157532,0.573104,0.0435562,-0.320661,-0.133094,0.000324417,0.0177445,0.0564004,-0.040915,0.0888388,0.0340061
1413393235155760384,-2.74779,2.91497,-5.54322,-0.123748,0.797727,0.144692,0.572174,0.0534729,-0.321026,-0.207106,0.000335764,0.0177726,0.0564434,-0.0399369,0.0893915,0.0344928
1413393235205760512,-2.7433,2.90201,-5.55371,-0.115142,0.799962,0.135095,0.573195,0.0588222,-0.322193,-0.224486,0.000359451,0.0178229,0.0565036,-0.0395548,0.0900295,0.03494
1413393235255760384,-2.73837,2.88857,-5.56298,-0.102832,0.802967,0.128622,0.572823,0.0637948,-0.322787,-0.240434,0.000380933,0.0178791,0.0565688,-0.0391273,0.0907557,0.0350797
1413393235305760512,-2.73345,2.87594,-5.57154,-0.0884783,0.805629,0.124243,0.572449,0.0694889,-0.3108,-0.216169,0.000420457,0.0179362,0.056636,-0.0389431,0.0914104,0.035513
1413393235355760384,-2.73005,2.86321,-5.57855,-0.0760606,0.808637,0.12062,0.570765,0.0703274,-0.287819,-0.206142,0.000439331,0.0179542,0.0566792,-0.0384727,0.0915521,0.0361912
1413393235405760512,-2.72722,2.85106,-5.58631,-0.0652379,0.811936,0.118053,0.567951,0.0725699,-0.257947,-0.18218,0.00046446,0.0179923,0.0567541,-0.038805,0.0910888,0.0369339
1413393235455760384,-2.72383,2.8393,-5.5915,-0.0568864,0.814483,0.115379,0.565747,0.0884748,-0.229044,-0.161868,0.000472031,0.0179927,0.0568084,-0.0385839,0.0903912,0.0376442
1413393235505760512,-2.71919,2.82875,-5.59709,-0.0492536,0.81726,0.113639,0.562803,0.104588,-0.199064,-0.128766,0.000474908,0.0179889,0.0568237,-0.0383313,0.0898356,0.0375617
1413393235555760384,-2.71326,2.82025,-5.60215,-0.0391556,0.816363,0.113953,0.564831,0.124039,-0.156246,-0.0872361,0.000489882,0.0179919,0.0568836,-0.0376126,0.0895041,0.0375545
1413393235605760512,-2.7068,2.81539,-5.60769,-0.0265833,0.814081,0.115331,0.568564,0.127622,-0.109448,-0.107077,0.000558922,0.0179766,0.0569052,-0.0370889,0.0887171,0.0370797
1413393235655760384,-2.7019,2.81932,-5.61625,-0.0168015,0.811874,0.113651,0.572417,0.13619,-0.0533042,-0.0891626,0.000659611,0.0179814,0.0569357,-0.0361116,0.0876982,0.0363975
1413393235705760512,-2.69958,2.82737,-5.61608,-0.00933514,0.809437,0.109687,0.576796,0.13564,0.017239,-0.092502,0.000854492,0.0180033,0.0569094,-0.0360291,0.0872337,0.0339897
1413393235755760384,-2.69246,2.82893,-5.61564,-0.00815241,0.808135,0.106047,0.579315,0.13444,0.0839109,-0.0824411,0.000871807,0.0180228,0.0569597,-0.0358379,0.0876247,0.0337404
1413393235805760512,-2.68481,2.83152,-5.61784,-0.0108238,0.807244,0.10132,0.581356,0.126972,0.150052,-0.0749922,0.000872241,0.018064,0.056989,-0.0351493,0.0885884,0.0334722
1413393235855760384,-2.6777,2.83467,-5.62843,-0.0203502,0.806486,0.0928106,0.583569,0.12504,0.193715,-0.0775709,0.00087085,0.0180924,0.0570121,-0.034706,0.090463,0.032769
1413393235905760512,-2.67242,2.84304,-5.64655,-0.0313302,0.805974,0.0819659,0.58541,0.113454,0.221434,-0.0775869,0.000858733,0.0181132,0.0570319,-0.0350323,0.0917534,0.032738
1413393235955760384,-2.66765,2.85341,-5.6664,-0.0417416,0.805691,0.0710977,0.586571,0.107834,0.238317,-0.0615017,0.000802292,0.0181418,0.0570538,-0.0351782,0.0929669,0.0328013
1413393236005760512,-2.6635,2.86507,-5.68955,-0.0478534,0.804608,0.0615246,0.588669,0.0938542,0.228835,-0.0313757,0.000766612,0.0181815,0.0570698,-0.0352361,0.0944454,0.0326242
1413393236055760384,-2.65951,2.87639,-5.71887,-0.0528227,0.804219,0.050903,0.589789,0.0916394,0.215349,-0.0232192,0.000742199,0.0182201,0.0570969,-0.035526,0.0962031,0.0323377
1413393236105760512,-2.65486,2.8863,-5.75061,-0.0542879,0.804454,0.0409705,0.590109,0.104507,0.198526,0.0236828,0.000720046,0.0182654,0.0571312,-0.0357578,0.0984388,0.0319611
1413393236155760384,-2.65094,2.89361,-5.75193,-0.0529401,0.80479,0.0311086,0.590375,0.0608411,0.151322,0.035263,0.000697742,0.0182918,0.0571373,-0.0354421,0.0992971,0.0317509
1413393236205760512,-2.64856,2.90033,-5.75442,-0.045472,0.806553,0.0234498,0.588944,0.0345735,0.120473,0.069843,0.000680013,0.0183075,0.0571592,-0.0352127,0.100066,0.0312569
1413393236255760384,-2.64773,2.90461,-5.75065,-0.0345559,0.808739,0.0180968,0.586874,-0.0033033,0.11044,0.108568,0.000657428,0.0183174,0.0571846,-0.0351471,0.101069,0.0310879
1413393236305760512,-2.64982,2.90912,-5.75499,-0.0212662,0.810847,0.0135621,0.584715,0.00304686,0.0773293,0.0969813,0.000611641,0.0183559,0.057232,-0.036184,0.10509,0.0294236
1413393236355760384,-2.65069,2.91306,-5.74806,-0.00884628,0.812078,0.0059058,0.583452,0.0039435,0.07943,0.132772,0.000655886,0.0183774,0.057244,-0.0361023,0.1064,0.0295377
1413393236405760512,-2.65156,2.91708,-5.75109,-0.000636661,0.813761,-0.00276019,0.581193,0.0123731,0.0943003,0.134464,0.0006751,0.0184222,0.0572906,-0.0367077,0.109879,0.0287574
1413393236455760384,-2.65149,2.92126,-5.74639,0.00627035,0.814406,-0.0124394,0.580128,0.00680554,0.0903548,0.121766,0.000679152,0.0184304,0.0573295,-0.0360737,0.110834,0.0287403
1413393236505760512,-2.65109,2.92596,-5.74073,0.0116581,0.816637,-0.0234882,0.576556,0.0138215,0.0870081,0.121892,0.000694509,0.0184375,0.0573718,-0.0356847,0.111781,0.0287953
1413393236555760384,-2.6505,2.93104,-5.73548,0.0174319,0.819535,-0.0341369,0.571746,0.0268444,0.0918252,0.127009,0.00070504,0.018476,0.0574268,-0.0343711,0.112026,0.0291702
1413393236605760512,-2.64882,2.93611,-5.73043,0.0226331,0.82386,-0.0448944,0.564559,0.0444026,0.0954159,0.127553,0.0007211,0.0184855,0.0574524,-0.033827,0.112849,0.0295464
1413393236655760384,-2.6464,2.94112,-5.72918,0.0269988,0.82725,-0.0555778,0.558426,0.0726804,0.0946633,0.0742308,0.000733215,0.0184976,0.0574983,-0.0325067,0.113699,0.0294916
1413393236705760512,-2.64291,2.94708,-5.72959,0.0297292,0.828561,-0.0650994,0.555306,0.0854531,0.0983827,0.0171248,0.000736741,0.0185216,0.0575453,-0.0313344,0.11466,0.0289372
1413393236755760384,-2.64108,2.99708,-5.66548,0.0442969,0.825899,-0.0960862,0.553802,0.119661,0.0875905,-0.0300364,0.00206168,0.0185792,0.0571517,-0.0331056,0.10705,0.0243117
1413393236805760512,-2.63234,2.99653,-5.7235,0.0334278,0.825559,-0.0924087,0.555694,0.138668,0.0767288,-0.0764892,0.00112383,0.0185614,0.0574773,-0.0309152,0.113794,0.0287402
1413393236855760384,-2.62406,3.03644,-5.68125,0.046581,0.820578,-0.117591,0.557365,0.174476,0.0544066,-0.067743,0.00222022,0.0185992,0.0571695,-0.0325244,0.106903,0.0245649
1413393236905760512,-2.61537,3.03898,-5.72287,0.0445176,0.819017,-0.116215,0.560111,0.189738,0.029429,-0.00078405,0.00178806,0.0185933,0.0573543,-0.0302795,0.108031,0.0286394
1413393236955760384,-2.60487,3.04124,-5.74391,0.0488962,0.815609,-0.118359,0.564254,0.209032,-0.00433557,0.0404239,0.00177297,0.0185983,0.0573937,-0.0295395,0.106028,0.031987
1413393237005760512,-2.59353,3.04178,-5.75026,0.0546168,0.812613,-0.117976,0.568119,0.217949,-0.0190013,0.130919,0.00176243,0.0185956,0.0574204,-0.0291867,0.104736,0.0340352
1413393237055760384,-2.58224,3.04345,-5.77325,0.0611596,0.810668,-0.115946,0.570643,0.203997,-0.0377927,0.200339,0.00176256,0.0186202,0.0574464,-0.0297541,0.101133,0.0389929
1413393237105760512,-2.57103,3.044,-5.79722,0.0689547,0.809122,-0.112396,0.572655,0.206518,-0.0428177,0.271734,0.00177036,0.0186294,0.0574764,-0.0298685,0.09851,0.0419889
1413393237155760384,-2.55951,3.04502,-5.80866,0.0777577,0.807017,-0.107042,0.575517,0.214713,-0.0352243,0.25246,0.00177292,0.0186351,0.0575081,-0.0303262,0.0965995,0.0447052
1413393237205760512,-2.54766,3.04598,-5.80792,0.0861807,0.805775,-0.101611,0.57704,0.217105,-0.0209367,0.204356,0.00181165,0.0186455,0.0575405,-0.031109,0.0948412,0.0468923
1413393237255760384,-2.53518,3.04872,-5.80934,0.0920778,0.804878,-0.0977432,0.578049,0.230699,-0.0173824,0.129931,0.00185043,0.0186733,0.0575659,-0.0315116,0.0935916,0.0491484
1413393237305760512,-2.52237,3.05195,-5.81147,0.096568,0.805396,-0.0947374,0.577093,0.232196,0.0115319,0.0690435,0.0018909,0.0186695,0.0576102,-0.0327687,0.0920633,0.0510227
1413393237355760384,-2.51019,3.05575,-5.8149,0.0995221,0.80591,-0.0922713,0.576273,0.233732,0.0436873,-0.00861707,0.00194836,0.0186827,0.0576365,-0.0335734,0.0909286,0.0521381
1413393237405760512,-2.49822,3.05954,-5.81704,0.100885,0.805283,-0.0910274,0.57711,0.234396,0.0625053,-0.0823528,0.00198819,0.0187067,0.0576769,-0.034847,0.0896083,0.0531271
1413393237455760384,-2.48798,3.06219,-5.81748,0.0988559,0.804676,-0.091928,0.578164,0.239133,0.103106,-0.114955,0.00203678,0.0187203,0.0576918,-0.0362702,0.0882355,0.0538098
1413393237505760512,-2.47645,3.06782,-5.81963,0.092596,0.803771,-0.0945906,0.580027,0.243481,0.129241,-0.132172,0.00207277,0.0187364,0.0577362,-0.0375341,0.0873357,0.0547072
1413393237555760384,-2.46483,3.07512,-5.82748,0.0837149,0.803464,-0.0987698,0.581104,0.232771,0.147914,-0.121768,0.00206157,0.0187345,0.0577726,-0.0395573,0.0866925,0.0553036
1413393237605760512,-2.45305,3.08346,-5.83812,0.0745414,0.802528,-0.103006,0.582908,0.223612,0.156347,-0.116505,0.00205062,0.0187411,0.0578098,-0.0417462,0.0862518,0.0561954
1413393237655760384,-2.44161,3.0917,-5.84836,0.0652757,0.803168,-0.107709,0.582288,0.211946,0.153938,-0.101039,0.00204667,0.0187504,0.0578213,-0.043263,0.0859022,0.0568914
1413393237705760512,-2.43098,3.09945,-5.86059,0.0577701,0.803171,-0.111033,0.582453,0.20279,0.143795,-0.105503,0.0020386,0.018754,0.0578504,-0.0454064,0.0857382,0.0578921
1413393237755760384,-2.42089,3.10641,-5.86888,0.0523911,0.803893,-0.112813,0.581623,0.190262,0.127013,-0.0883781,0.0020096,0.0187695,0.0578817,-0.047611,0.0857958,0.0588387
1413393237805760512,-2.41081,3.11197,-5.879,0.0491299,0.804662,-0.113566,0.580696,0.193148,0.100948,-0.0593238,0.00201159,0.0187718,0.0579008,-0.0495774,0.0856669,0.0598145
1413393237855760384,-2.40134,3.11611,-5.88482,0.0487884,0.806347,-0.112424,0.578607,0.197637,0.0765019,-0.0635896,0.00201045,0.0187707,0.0579297,-0.0518251,0.085972,0.0612952
1413393237905760512,-2.39079,3.11881,-5.88743,0.0508399,0.808542,-0.110697,0.575693,0.191611,0.0524072,-0.0376792,0.00203042,0.0187725,0.0579513,-0.0539059,0.0858918,0.063297
1413393237955760384,-2.3814,3.11901,-5.90038,0.0531102,0.809798,-0.109175,0.57401,0.18214,0.028333,-0.0474241,0.0020506,0.0187378,0.0579567,-0.0575434,0.0864974,0.0678413
1413393238005760512,-2.37169,3.11898,-5.92706,0.0599155,0.813489,-0.10432,0.569002,0.181392,0.013635,-0.0495035,0.00204692,0.0187323,0.0579657,-0.0606075,0.0869443,0.0730977
1413393238055760384,-2.36212,3.11804,-5.9528,0.0665273,0.816287,-0.0999542,0.56503,0.199086,0.0107941,-0.0311624,0.00206529,0.0187231,0.0579757,-0.0626314,0.0869135,0.0774021
1413393238105760512,-2.35133,3.11756,-5.96434,0.0716035,0.818917,-0.0973596,0.561043,0.212362,0.00311557,-0.0266213,0.00209153,0.0187293,0.0579677,-0.0648758,0.0864093,0.08045
1413393238155760384,-2.33968,3.1183,-5.97262,0.0771434,0.819589,-0.0958608,0.559584,0.221531,-0.00110387,0.000604565,0.00212897,0.0187261,0.0579794,-0.0661359,0.0863269,0.0833043
1413393238205760512,-2.32661,3.11474,-5.97275,0.0817678,0.820223,-0.0957619,0.558012,0.253738,0.014242,0.0102268,0.00219404,0.018734,0.0579816,-0.0679502,0.0859616,0.0852736
1413393238255760384,-2.31692,3.12719,-5.97683,0.085353,0.820383,-0.0957563,0.557241,0.262901,0.0295739,0.0603905,0.0022418,0.0187374,0.0580076,-0.0692606,0.0853419,0.0865765
1413393238305760512,-2.28708,3.14815,-6.0442,0.0803191,0.822147,-0.0857566,0.557018,0.306914,0.0412376,0.117683,0.00154736,0.018732,0.0582236,-0.067503,0.091515,0.0965194
1413393238355760384,-2.28412,3.12313,-5.98587,0.0831442,0.821948,-0.0898571,0.556251,0.358358,0.0629667,0.145093,0.00172622,0.0187369,0.058221,-0.0701667,0.089745,0.0948542
1413393238405760512,-2.26677,3.11492,-5.97349,0.0840632,0.821116,-0.0924581,0.556914,0.412472,0.0699981,0.209893,0.00178096,0.0187494,0.0582519,-0.0722803,0.0890936,0.0952679
1413393238455760384,-2.24409,3.13695,-5.96366,0.0847672,0.818727,-0.100531,0.558922,0.437808,0.080338,0.2396,0.00204658,0.0187687,0.0582183,-0.0749254,0.0868535,0.0926706
1413393238505760512,-2.2239,3.13462,-5.97101,0.0789485,0.816925,-0.106692,0.561264,0.453907,0.0904358,0.21243,0.00204868,0.0187874,0.0582477,-0.0759719,0.0873178,0.0926117
1413393238555760384,-2.20071,3.13214,-5.97302,0.071574,0.8137,-0.113499,0.565587,0.453611,0.0949113,0.161898,0.00201054,0.0188114,0.0582893,-0.0772517,0.0873555,0.0926118
1413393238605760512,-2.17772,3.13224,-5.98103,0.0628014,0.810625,-0.120188,0.569647,0.463982,0.079569,0.106293,0.00194498,0.018823,0.0583311,-0.0781619,0.0877151,0.09328
1413393238655760384,-2.15772,3.13015,-5.98702,0.0540109,0.808484,-0.125669,0.572402,0.464874,0.0571339,0.0635688,0.00184159,0.0188428,0.0583834,-0.0786815,0.0879254,0.0938357
1413393238705760512,-2.13538,3.13453,-6,0.0483494,0.806562,-0.131372,0.574336,0.459898,0.0323712,-0.000242167,0.00183851,0.0188544,0.0584063,-0.0796619,0.0878732,0.0929142
1413393238755760384,-2.11299,3.13659,-6.00639,0.0441498,0.804997,-0.135754,0.575848,0.452652,-0.00366846,-0.0372901,0.00183771,0.0188867,0.0584302,-0.0795148,0.0879488,0.0924679
1413393238805760512,-2.0903,3.13555,-6.01518,0.0432404,0.803863,-0.137462,0.577096,0.447783,-0.0379608,-0.0476151,0.00183172,0.0188965,0.0584455,-0.0795391,0.087784,0.0915639
1413393238855760384,-2.0674,3.13257,-6.01789,0.0454857,0.803687,-0.136888,0.577305,0.435691,-0.0815858,-0.0353175,0.00180826,0.0189041,0.0584748,-0.0793927,0.0877188,0.0918684
1413393238905760512,-2.04534,3.12784,-6.02495,0.0506704,0.804038,-0.134613,0.576919,0.435754,-0.121181,-0.0189889,0.00180689,0.0189136,0.0585127,-0.0795487,0.0879806,0.0913753
1413393238955760384,-2.0246,3.1216,-6.03026,0.0598105,0.805003,-0.130459,0.575651,0.421008,-0.152286,0.0013141,0.00187167,0.0189528,0.0585232,-0.0797791,0.0883689,0.0889173
1413393239005760512,-2.00394,3.11377,-6.03917,0.0691227,0.805666,-0.125142,0.57486,0.415938,-0.176761,0.0225489,0.00186322,0.0190055,0.0585681,-0.079458,0.0892302,0.0881272
1413393239055760384,-1.98322,3.10513,-6.0456,0.0771214,0.806896,-0.119753,0.573263,0.426238,-0.165459,0.0201066,0.00187199,0.0190253,0.0586087,-0.0784639,0.0895661,0.0871419
1413393239105760512,-1.96251,3.09603,-6.05024,0.0838153,0.80744,-0.116035,0.572322,0.419213,-0.18242,0.00957443,0.00187183,0.0190572,0.0586116,-0.0780436,0.089877,0.0862628
1413393239155760384,-1.94158,3.08733,-6.05268,0.0887424,0.807688,-0.113632,0.57171,0.426973,-0.167918,0.0297074,0.00187224,0.0190679,0.0586324,-0.0759804,0.0898142,0.0853878
1413393239205760512,-1.9202,3.07936,-6.05143,0.0926257,0.808497,-0.110988,0.570468,0.438428,-0.14582,0.0112673,0.0018966,0.0190756,0.058645,-0.0754682,0.0897509,0.0850753
1413393239255760384,-1.89846,3.07222,-6.05196,0.0947801,0.80821,-0.110501,0.570617,0.433208,-0.148693,0.0171515,0.00190397,0.0190965,0.058679,-0.0748776,0.0896698,0.0848441
1413393239305760512,-1.87641,3.06577,-6.05304,0.097199,0.808545,-0.109835,0.569862,0.44684,-0.120915,0.0251021,0.00191001,0.0191158,0.0587142,-0.0739027,0.0897183,0.0845355
1413393239355760384,-1.85384,3.06039,-6.05285,0.0979202,0.809323,-0.109173,0.568762,0.455425,-0.0984168,0.0357816,0.00192341,0.0191268,0.0587432,-0.0731653,0.0899042,0.0841265
1413393239405760512,-1.83087,3.05543,-6.04811,0.0984248,0.809511,-0.109595,0.568325,0.464508,-0.0894146,0.0410687,0.00192233,0.019151,0.0587857,-0.072732,0.0898618,0.0835447
1413393239455760384,-1.80694,3.05158,-6.03303,0.0978441,0.810147,-0.110564,0.56733,0.479285,-0.0599725,0.0494505,0.00194097,0.0191625,0.0588464,-0.0726941,0.0899872,0.0821594
1413393239505760512,-1.7825,3.04878,-6.02568,0.0999591,0.810464,-0.109204,0.566772,0.49522,-0.0486434,0.0826279,0.00195112,0.0191816,0.0588679,-0.0722907,0.0899785,0.0814426
1413393239555760384,-1.75714,3.04683,-6.02466,0.0979102,0.810855,-0.110879,0.566245,0.508446,-0.0274852,0.0837459,0.00196139,0.0192197,0.0588911,-0.0711255,0.0901154,0.0795956
1413393239605760512,-1.73114,3.04608,-6.02329,0.0936946,0.811184,-0.113083,0.566052,0.527716,0.00301277,0.0920692,0.00196973,0.0192344,0.0589135,-0.0697817,0.090459,0.0786976
1413393239655760384,-1.70446,3.0461,-6.02294,0.0865987,0.810668,-0.117767,0.566965,0.537662,0.00540474,0.112558,0.0019756,0.0192544,0.0589252,-0.0683881,0.0905806,0.0775588
1413393239705760512,-1.67715,3.04655,-6.02134,0.0760165,0.809771,-0.12517,0.568177,0.543462,0.00263921,0.112194,0.00196497,0.0192746,0.0589553,-0.0668723,0.0907653,0.0765911
1413393239755760384,-1.64977,3.04665,-6.01643,0.0674556,0.808815,-0.130458,0.569429,0.55047,-0.00150485,0.106402,0.0019552,0.0192746,0.0589918,-0.0655125,0.0906387,0.075338
1413393239805760512,-1.62249,3.04589,-6.01176,0.0618925,0.80841,-0.133933,0.569829,0.546827,-0.0384442,0.112976,0.00193586,0.019294,0.0590253,-0.0644731,0.0900528,0.0739987
1413393239855760384,-1.59546,3.04393,-6.01014,0.058902,0.809162,-0.135877,0.568617,0.542605,-0.0571421,0.0895576,0.00191638,0.0192989,0.0590502,-0.06328,0.0907873,0.0733552
1413393239905760512,-1.56842,3.04052,-6.00817,0.0605285,0.81012,-0.134254,0.567466,0.54538,-0.0827049,0.104876,0.00190284,0.0193032,0.0591,-0.0617445,0.0915221,0.0715776
1413393239955760384,-1.54167,3.03566,-6.01391,0.0619919,0.810349,-0.133039,0.567267,0.550682,-0.109502,0.113331,0.00189532,0.0192867,0.0591157,-0.0586868,0.0919371,0.0695493
1413393240005760512,-1.5142,3.03001,-6.008,0.0660775,0.810075,-0.129776,0.567953,0.557963,-0.130328,0.109903,0.00188773,0.0192967,0.0591679,-0.0571535,0.0926313,0.0672479
1413393240055760384,-1.48697,3.02296,-6.00979,0.0710484,0.809841,-0.1258,0.568582,0.558056,-0.146252,0.117072,0.00187045,0.0192579,0.0591866,-0.0541598,0.0925435,0.0646337
1413393240105760512,-1.45943,3.01532,-6.00877,0.078475,0.809052,-0.120325,0.569911,0.558617,-0.160854,0.127141,0.00186508,0.019269,0.0592113,-0.053445,0.0928379,0.064371
1413393240155760384,-1.43212,3.00781,-6.00818,0.0847564,0.808448,-0.115349,0.570896,0.564312,-0.149249,0.0904974,0.00186262,0.019237,0.0592413,-0.0504533,0.0930153,0.0624582
1413393240205760512,-1.40512,3.00075,-6.01235,0.0889118,0.807752,-0.111463,0.572021,0.551911,-0.134608,0.0460879,0.00185626,0.0192052,0.0592454,-0.0490881,0.0936257,0.0617279
1413393240255760384,-1.37937,2.99416,-6.04364,0.0916782,0.80815,-0.108779,0.571539,0.545711,-0.123391,-0.00731661,0.0018452,0.0191777,0.0592701,-0.0475105,0.0942599,0.061902
1413393240305760512,-1.35379,2.9881,-6.0857,0.0906283,0.807981,-0.108796,0.571941,0.544221,-0.101039,-0.0633025,0.00183175,0.0191836,0.0593067,-0.0448774,0.0953871,0.0621783
1413393240355760384,-1.32816,2.98315,-6.13978,0.088468,0.80752,-0.109634,0.57277,0.542103,-0.0894895,-0.116369,0.00180761,0.0191676,0.0593191,-0.042536,0.0957978,0.0625152
1413393240405760512,-1.3027,2.977,-6.22709,0.0837303,0.806609,-0.112605,0.574188,0.55329,-0.0814034,-0.160993,0.00176592,0.0191519,0.0593223,-0.0389437,0.0968374,0.0634276
1413393240455760384,-1.27577,2.97305,-6.28023,0.0796256,0.805354,-0.115182,0.576019,0.550178,-0.0800242,-0.209395,0.00175552,0.019161,0.0593633,-0.0359053,0.0971792,0.0643189
1413393240505760512,-1.24949,2.96885,-6.33536,0.0736791,0.804271,-0.119349,0.577474,0.53587,-0.0780288,-0.228058,0.00173758,0.0191342,0.0593659,-0.0337079,0.0977726,0.0657668
1413393240555760384,-1.22305,2.96499,-6.35624,0.0693749,0.802978,-0.122545,0.579135,0.527476,-0.083961,-0.194394,0.00172261,0.0191201,0.0593931,-0.0325433,0.0980262,0.0664509
1413393240605760512,-1.19714,2.96077,-6.37144,0.0659464,0.802023,-0.125388,0.580249,0.511467,-0.0952912,-0.147328,0.00171404,0.0191128,0.0594107,-0.031648,0.0984691,0.0670987
1413393240655760384,-1.1708,2.95593,-6.37463,0.065004,0.801735,-0.12663,0.580483,0.544893,-0.124664,-0.0827802,0.0017022,0.0191219,0.0594554,-0.0308088,0.0993712,0.0675485
1413393240705760512,-1.14321,2.94924,-6.3766,0.0659544,0.801865,-0.127334,0.580042,0.572182,-0.156448,0.0675393,0.00168879,0.0191105,0.0594718,-0.0307561,0.0997262,0.0681812
1413393240755760384,-1.11489,2.94172,-6.37294,0.0701127,0.801336,-0.12599,0.580579,0.5657,-0.165293,0.134448,0.00168062,0.0190952,0.0595024,-0.0313565,0.100236,0.0686117
1413393240805760512,-1.08733,2.9342,-6.37308,0.0745196,0.800284,-0.12443,0.581816,0.559645,-0.176264,0.166284,0.00168141,0.0190893,0.0595427,-0.032815,0.101151,0.0689012
1413393240855760384,-1.06027,2.9271,-6.37405,0.0802255,0.799386,-0.121563,0.582896,0.544473,-0.165818,0.140157,0.00168462,0.0190934,0.0595712,-0.0344688,0.102812,0.0700857
1413393240905760512,-1.03361,2.91924,-6.3769,0.0837977,0.79708,-0.12062,0.585741,0.520188,-0.168869,0.0813191,0.00167814,0.0191174,0.0596132,-0.0360396,0.103423,0.0705198
1413393240955760384,-1.00863,2.91175,-6.38402,0.0873165,0.794575,-0.120075,0.588734,0.484738,-0.152741,0.00726676,0.00168293,0.0191141,0.0596347,-0.0378317,0.104202,0.070769
1413393241005760512,-0.985042,2.90511,-6.39049,0.0900819,0.792045,-0.119557,0.591824,0.476353,-0.13966,-0.052283,0.00167301,0.0191009,0.0596945,-0.0392276,0.105076,0.0712754
1413393241055760384,-0.962075,2.89878,-6.4053,0.090631,0.789772,-0.12077,0.594525,0.461474,-0.135725,-0.108607,0.00166255,0.0191068,0.0597351,-0.0426094,0.106479,0.0717785
1413393241105760512,-0.939705,2.89302,-6.4171,0.0881667,0.788617,-0.124141,0.595734,0.444481,-0.116338,-0.181567,0.00166765,0.0191209,0.0597499,-0.0442439,0.107457,0.0725081
1413393241155760384,-0.918472,2.88748,-6.42872,0.0837597,0.787913,-0.129099,0.596248,0.413504,-0.108963,-0.241127,0.00165868,0.019132,0.0597916,-0.0451088,0.107741,0.0727735
1413393241205760512,-0.898916,2.88229,-6.44136,0.0789374,0.787848,-0.133946,0.595922,0.394157,-0.105689,-0.26609,0.00164209,0.0191133,0.0598068,-0.0466983,0.10829,0.0737945
1413393241255760384,-0.880074,2.87707,-6.45645,0.0747928,0.788418,-0.138571,0.594643,0.366117,-0.111482,-0.271847,0.00164392,0.0191259,0.0598307,-0.0478055,0.109082,0.074263
1413393241305760512,-0.862587,2.87136,-6.46997,0.0715663,0.790194,-0.142521,0.591742,0.343836,-0.125454,-0.254691,0.00163578,0.0191312,0.05985,-0.0486624,0.109571,0.0747481
1413393241355760384,-0.845842,2.86492,-6.48378,0.0709729,0.795137,-0.144739,0.584611,0.323523,-0.134625,-0.249659,0.00162583,0.0191624,0.0598682,-0.0490941,0.110059,0.0748214
1413393241405760512,-0.82989,2.85771,-6.49613,0.0703636,0.798446,-0.146685,0.579669,0.312995,-0.157877,-0.237652,0.00162954,0.0191706,0.059907,-0.0497778,0.11054,0.075115
1413393241455760384,-0.81423,2.84917,-6.51031,0.0729452,0.801102,-0.146615,0.57569,0.308563,-0.182342,-0.203005,0.00162414,0.019176,0.0599285,-0.0499209,0.111204,0.0748467
1413393241505760512,-0.798564,2.84002,-6.52464,0.0774565,0.802631,-0.14425,0.573565,0.309268,-0.188285,-0.167728,0.00161444,0.0191992,0.0599627,-0.0498481,0.111921,0.0747885
1413393241555760384,-0.782941,2.83016,-6.53621,0.0826965,0.802449,-0.141441,0.573788,0.310044,-0.211471,-0.162164,0.00161489,0.0192032,0.0599818,-0.0497625,0.112386,0.0752629
1413393241605760512,-0.767287,2.81975,-6.54766,0.0887826,0.801222,-0.137845,0.575464,0.313375,-0.210691,-0.160358,0.00160181,0.0192076,0.0600111,-0.0497418,0.112677,0.0750744
1413393241655760384,-0.751629,2.80954,-6.55645,0.0931669,0.800413,-0.134611,0.576662,0.310268,-0.198685,-0.147142,0.00160625,0.0192243,0.0600449,-0.0499056,0.11276,0.0750191
1413393241705760512,-0.736247,2.79963,-6.56242,0.0978524,0.799363,-0.13126,0.578113,0.305155,-0.197244,-0.147903,0.00160071,0.0192241,0.0600717,-0.0502737,0.112767,0.0751814
1413393241755760384,-0.72097,2.79016,-6.56946,0.0999368,0.799222,-0.130017,0.578232,0.304349,-0.186091,-0.136577,0.00159169,0.0192286,0.0600923,-0.050301,0.112853,0.0753209
1413393241805760512,-0.705679,2.78142,-6.57629,0.101819,0.800202,-0.128116,0.576972,0.304758,-0.163002,-0.136997,0.00159608,0.0192322,0.0601244,-0.050083,0.112814,0.0753179
1413393241855760384,-0.690357,2.77348,-6.58219,0.102731,0.801022,-0.126639,0.575997,0.307977,-0.155711,-0.126077,0.0015944,0.0192535,0.0601434,-0.0504953,0.112807,0.0753649
1413393241905760512,-0.674866,2.76639,-6.58653,0.103371,0.800248,-0.125718,0.577159,0.308601,-0.135002,-0.0830201,0.00157561,0.0192804,0.060164,-0.0506255,0.112863,0.0754787
1413393241955760384,-0.659251,2.76033,-6.59114,0.10402,0.798353,-0.123373,0.580165,0.309195,-0.104904,-0.0825214,0.00157101,0.0192975,0.060185,-0.0508466,0.11289,0.0747899
1413393242005760512,-0.64367,2.75537,-6.59735,0.103694,0.796917,-0.122167,0.582449,0.308371,-0.0946837,-0.0830111,0.0015612,0.019321,0.060204,-0.0508528,0.113045,0.0744208
1413393242055760384,-0.628124,2.75152,-6.60519,0.103872,0.794448,-0.120274,0.586172,0.306882,-0.0582224,-0.0613394,0.00154994,0.0193416,0.0602276,-0.0508952,0.113423,0.0737446
1413393242105760512,-0.613067,2.749,-6.61192,0.10388,0.792316,-0.118197,0.58947,0.295449,-0.0371454,-0.0525451,0.00155387,0.0193503,0.0602563,-0.0516264,0.11369,0.0735068
1413393242155760384,-0.59864,2.74761,-6.62037,0.101942,0.788824,-0.118136,0.594481,0.276342,-0.0215879,-0.0434168,0.00154891,0.0193478,0.0602893,-0.0515177,0.114041,0.0727198
1413393242205760512,-0.585288,2.74765,-6.62647,0.0990977,0.784881,-0.118418,0.6001,0.251867,0.0182008,-0.0294726,0.00153776,0.019344,0.0603193,-0.0521069,0.114409,0.0720505
1413393242255760384,-0.573362,2.7484,-6.63156,0.0974465,0.782402,-0.118125,0.603654,0.21849,0.0245418,-0.0229907,0.00152962,0.0193536,0.0603462,-0.0525295,0.114397,0.0714123
1413393242305760512,-0.562874,2.75032,-6.63988,0.0953038,0.781307,-0.119095,0.605222,0.183584,0.0395046,-0.0173246,0.00152754,0.0193489,0.0603795,-0.0538021,0.115451,0.0705233
1413393242355760384,-0.554077,2.75324,-6.64641,0.0911182,0.782292,-0.121105,0.604195,0.160561,0.0657032,-0.0283514,0.00152657,0.0193698,0.0604172,-0.0545588,0.115902,0.0698001
1413393242405760512,-0.546869,2.75687,-6.65066,0.0849113,0.785183,-0.124618,0.600623,0.124137,0.0736279,-0.021785,0.00152774,0.0193899,0.0604638,-0.0548138,0.116214,0.0693168
1413393242455760384,-0.541105,2.76118,-6.65389,0.0776547,0.789773,-0.129219,0.594584,0.0987297,0.077654,-0.0180039,0.00152587,0.0194179,0.0605064,-0.0550069,0.116694,0.0687984
1413393242505760512,-0.536725,2.76494,-6.65529,0.069481,0.795219,-0.134509,0.587117,0.0761326,0.0730286,-0.0272895,0.0015262,0.0194192,0.0605279,-0.0549407,0.116761,0.0682802
1413393242555760384,-0.533125,2.76824,-6.65475,0.0632871,0.800146,-0.138324,0.580196,0.0667012,0.0495782,0.002582,0.00150546,0.0194385,0.0605489,-0.0556439,0.117097,0.068063
1413393242605760512,-0.529977,2.77037,-6.65309,0.0586685,0.8039,-0.141366,0.574733,0.059058,0.0201737,0.0100478,0.0015008,0.0194482,0.0605772,-0.0562429,0.117382,0.0680602
1413393242655760384,-0.526626,2.77085,-6.6514,0.056295,0.8065,-0.142492,0.571039,0.0674059,-0.00398871,0.0313981,0.00149153,0.0194514,0.060593,-0.0567077,0.117338,0.0687282
1413393242705760512,-0.523027,2.76987,-6.64745,0.0539103,0.807186,-0.144051,0.569907,0.07159,-0.0472798,0.0342662,0.00144356,0.0194552,0.0605977,-0.0575318,0.117311,0.0693832
1413393242755760384,-0.518936,2.76691,-6.64526,0.0499466,0.806775,-0.1454,0.570507,0.0761069,-0.072022,0.0640735,0.00143076,0.0194619,0.0606063,-0.0580256,0.116947,0.0701137
1413393242805760512,-0.514601,2.7623,-6.64099,0.0486206,0.806301,-0.1437,0.571722,0.081655,-0.114083,0.0677555,0.00142217,0.019463,0.0606187,-0.0580823,0.116737,0.0701524
1413393242855760384,-0.509914,2.75612,-6.63672,0.0490248,0.806319,-0.13892,0.572841,0.086595,-0.146467,0.0883896,0.00139417,0.0194737,0.0606386,-0.058128,0.1167,0.0699392
1413393242905760512,-0.504834,2.74827,-6.63268,0.0543339,0.807271,-0.128512,0.573451,0.095233,-0.164196,0.0787741,0.00139111,0.0194841,0.0606679,-0.05809,0.116241,0.069725
1413393242955760384,-0.499967,2.73961,-6.62792,0.0578381,0.809587,-0.118652,0.571966,0.0910656,-0.193243,0.0965985,0.0013802,0.0194958,0.0607001,-0.0583181,0.116555,0.0696654
1413393243005760512,-0.495076,2.73045,-6.62215,0.0595707,0.812469,-0.108289,0.569753,0.105743,-0.186608,0.0982294,0.00137069,0.0195044,0.0607388,-0.0584324,0.116826,0.0691738
1413393243055760384,-0.489498,2.72099,-6.61697,0.0591089,0.81505,-0.0969803,0.568151,0.118672,-0.187132,0.0862446,0.00137127,0.0195166,0.0607729,-0.0582563,0.117062,0.0687077
1413393243105760512,-0.483178,2.71173,-6.61238,0.056656,0.817667,-0.0864066,0.566343,0.133867,-0.192371,0.0998371,0.00136313,0.0195217,0.0608009,-0.0582334,0.117748,0.0681936
1413393243155760384,-0.476136,2.70293,-6.6085,0.0513456,0.818745,-0.0756958,0.566825,0.155107,-0.166916,0.119532,0.00136985,0.0195172,0.0608468,-0.0583157,0.118998,0.0673991
1413393243205760512,-0.468171,2.69484,-6.60442,0.0454307,0.817358,-0.0643825,0.570717,0.170502,-0.161737,0.144852,0.00136321,0.0195357,0.0608765,-0.0580453,0.119563,0.0664789
1413393243255760384,-0.459824,2.68703,-6.59685,0.0406561,0.813562,-0.0547058,0.57747,0.174326,-0.174796,0.144811,0.00136885,0.0195323,0.0609217,-0.0581434,0.120183,0.065273
1413393243305760512,-0.450951,2.67932,-6.59088,0.0364446,0.809482,-0.0454019,0.584252,0.17923,-0.146606,0.0955377,0.00137274,0.0195366,0.0609461,-0.0576551,0.119986,0.0644048
1413393243355760384,-0.442248,2.67244,-6.59024,0.0313159,0.806274,-0.0383602,0.589467,0.173978,-0.158322,0.0448323,0.00136613,0.0195429,0.0609904,-0.057543,0.121041,0.0633781
1413393243405760512,-0.433853,2.66559,-6.58902,0.027803,0.80307,-0.032493,0.594348,0.158773,-0.152406,-0.00186097,0.00135562,0.0195465,0.0610176,-0.0575223,0.12137,0.06229
1413393243455760384,-0.42637,2.65928,-6.58974,0.0241052,0.80121,-0.0272275,0.597278,0.146385,-0.132006,-0.0372537,0.00135727,0.0195348,0.0610666,-0.0583357,0.122122,0.0611805
1413393243505760512,-0.419373,2.65331,-6.59399,0.0208075,0.799615,-0.0231266,0.599707,0.129486,-0.129454,-0.100048,0.00134725,0.0195382,0.0611068,-0.0585656,0.122634,0.0601119
1413393243555760384,-0.413181,2.64766,-6.60081,0.0176462,0.79891,-0.0198765,0.600863,0.108407,-0.124396,-0.140102,0.00134063,0.0195465,0.0611504,-0.0589551,0.1232,0.0596403
1413393243605760512,-0.408039,2.64195,-6.60886,0.0155274,0.798926,-0.0170802,0.600987,0.0907125,-0.118359,-0.145966,0.0013346,0.0195659,0.0611785,-0.058617,0.123248,0.0592209
1413393243655760384,-0.404212,2.6362,-6.62052,0.0141221,0.799402,-0.0147063,0.600451,0.0666922,-0.108074,-0.153794,0.00132676,0.0195319,0.0612083,-0.0591717,0.125385,0.0587784
1413393243705760512,-0.401548,2.63106,-6.63096,0.0135329,0.800812,-0.012335,0.598637,0.0481493,-0.0917991,-0.121429,0.0013204,0.0195456,0.0612366,-0.0594737,0.126961,0.0581367
1413393243755760384,-0.399899,2.62664,-6.63957,0.0127947,0.802477,-0.0109339,0.596446,0.0241129,-0.0855413,-0.110113,0.00130973,0.0195461,0.0612684,-0.0598481,0.127819,0.0572105
1413393243805760512,-0.399037,2.62257,-6.64778,0.0129474,0.804051,-0.00944945,0.594345,0.00166137,-0.074225,-0.0811553,0.00130537,0.0195498,0.0612993,-0.060177,0.129108,0.0568237
1413393243855760384,-0.399284,2.61903,-6.65462,0.0114453,0.804678,-0.00923004,0.593529,-0.0113641,-0.0592027,-0.0718802,0.00129335,0.0195428,0.0613312,-0.0602856,0.129986,0.0568627
1413393243905760512,-0.400295,2.61584,-6.65975,0.0117552,0.805043,-0.00841439,0.59304,-0.0246356,-0.0556223,-0.0381961,0.00128576,0.0195464,0.0613547,-0.0603192,0.130691,0.0566646
1413393243955760384,-0.401718,2.61331,-6.66548,0.0116188,0.805033,-0.00778769,0.593065,-0.0376236,-0.0434445,-0.0278316,0.00128766,0.0195442,0.0613762,-0.0604469,0.132016,0.056844
1413393244005760512,-0.403749,2.61126,-6.66981,0.0115544,0.80533,-0.00740455,0.592668,-0.0459037,-0.0324851,-0.0223378,0.00126489,0.0195478,0.061395,-0.0603995,0.133564,0.0569314
1413393244055760384,-0.406386,2.6095,-6.67124,0.0129154,0.805029,-0.00671087,0.593058,-0.055132,-0.0218468,-0.00188408,0.00127293,0.0195445,0.0614244,-0.060386,0.133934,0.0566766
1413393244105760512,-0.409685,2.60848,-6.67073,0.013885,0.805363,-0.00614579,0.592588,-0.0684693,-0.0073607,0.0207386,0.00127204,0.0195467,0.0614554,-0.0606611,0.133726,0.0562772
1413393244155760384,-0.413514,2.60861,-6.66989,0.0142156,0.805651,-0.00479482,0.5922,-0.0843824,0.00912048,0.0030338,0.00126461,0.0195642,0.0614761,-0.0606777,0.132464,0.0565387
1413393244205760512,-0.417936,2.60986,-6.66963,0.0121899,0.805709,-0.00248355,0.592181,-0.0871349,0.0373451,0.00721898,0.00126668,0.0195789,0.0615058,-0.0606405,0.130356,0.0568098
1413393244255760384,-0.422681,2.61206,-6.67205,0.00982298,0.806339,0.00199167,0.591368,-0.0956178,0.0536865,0.0130813,0.00126328,0.0195883,0.0615302,-0.0605891,0.12811,0.0571854
1413393244305760512,-0.427754,2.61557,-6.67695,0.00683199,0.807165,0.00783968,0.590235,-0.102149,0.0754383,0.0277766,0.00125458,0.0196077,0.0615491,-0.0612496,0.123928,0.0575135
1413393244355760384,-0.433012,2.62016,-6.68867,0.00221113,0.807924,0.0146231,0.589102,-0.102605,0.103521,0.0169689,0.0012431,0.0196323,0.0615746,-0.0630306,0.11794,0.058053
1413393244405760512,-0.438126,2.62532,-6.69539,-0.00254813,0.807223,0.02022,0.589895,-0.106745,0.0972276,-0.0160879,0.00124668,0.0196407,0.0616158,-0.0660563,0.114138,0.0575749
1413393244455760384,-0.443931,2.63064,-6.70048,-0.00798714,0.805935,0.0243332,0.59145,-0.125736,0.11202,-0.0553731,0.00124851,0.0196448,0.0616424,-0.0669011,0.111718,0.057188
1413393244505760512,-0.450689,2.63631,-6.70436,-0.0136549,0.805307,0.0277727,0.59205,-0.140587,0.12327,-0.115606,0.00124966,0.019648,0.0616807,-0.0685076,0.111054,0.056359
1413393244555760384,-0.458041,2.64233,-6.7115,-0.0187845,0.804333,0.0301416,0.593116,-0.157884,0.114105,-0.178082,0.00125264,0.0196586,0.061712,-0.0716093,0.111501,0.0560976
1413393244605760512,-0.46587,2.64863,-6.72005,-0.0234375,0.8046,0.0323652,0.592472,-0.162528,0.126966,-0.207724,0.00124574,0.0196569,0.0617352,-0.0740686,0.112545,0.05603
1413393244655760384,-0.474159,2.6551,-6.73056,-0.0278201,0.804883,0.0341637,0.591795,-0.164223,0.127058,-0.178029,0.00123669,0.0196545,0.0617604,-0.0766911,0.116331,0.0553849
1413393244705760512,-0.483178,2.66139,-6.7432,-0.03089,0.804214,0.0362198,0.59243,-0.213779,0.121499,-0.11517,0.00123351,0.019655,0.0617771,-0.0781576,0.119084,0.0543758
1413393244755760384,-0.494681,2.66733,-6.76464,-0.0360434,0.804757,0.0356893,0.591434,-0.239028,0.11531,-0.112789,0.00122454,0.019651,0.0618141,-0.0787171,0.121429,0.0538782
1413393244805760512,-0.506954,2.67256,-6.77657,-0.0413909,0.804446,0.0345219,0.591576,-0.243897,0.108674,-0.0507049,0.00121673,0.019645,0.0618461,-0.0793925,0.122894,0.0535049
1413393244855760384,-0.51965,2.6769,-6.78659,-0.0452751,0.804951,0.0338246,0.590644,-0.259477,0.100704,0.0372764,0.00120505,0.0196378,0.0618787,-0.0795089,0.124933,0.0533052
1413393244905760512,-0.531609,2.68078,-6.78514,-0.0478702,0.804705,0.0329039,0.590826,-0.227234,0.0775083,0.12744,0.00119477,0.0196288,0.0619061,-0.079663,0.12605,0.0534148
1413393244955760384,-0.542746,2.68366,-6.77984,-0.0483707,0.804396,0.0330957,0.591195,-0.241161,0.0631087,0.195834,0.0011876,0.0196219,0.0619281,-0.0801642,0.128456,0.0533358
1413393245005760512,-0.554963,2.68614,-6.77279,-0.045939,0.805805,0.0348379,0.589369,-0.247583,0.0436539,0.182597,0.00117726,0.0196273,0.0619576,-0.080328,0.129667,0.0535554
1413393245055760384,-0.567445,2.68804,-6.76552,-0.0439807,0.808093,0.0354488,0.58634,-0.255249,0.0331239,0.150827,0.00117027,0.0196256,0.0619913,-0.0800907,0.130088,0.053569
1413393245105760512,-0.580005,2.68953,-6.7609,-0.0415816,0.810796,0.0366864,0.582697,-0.255645,0.0270737,0.0993854,0.00116974,0.0196245,0.0620192,-0.079917,0.129927,0.0541907
1413393245155760384,-0.59248,2.69038,-6.75772,-0.040124,0.813907,0.0365954,0.578452,-0.249139,0.0123478,0.0544417,0.00116326,0.0196641,0.0620388,-0.0801435,0.128056,0.0544749
1413393245205760512,-0.60474,2.6908,-6.75844,-0.0385346,0.816994,0.036786,0.57418,-0.244047,0.00499742,0.0133012,0.00115192,0.0196704,0.0620616,-0.0797685,0.126526,0.054275
1413393245255760384,-0.61654,2.69127,-6.76071,-0.036484,0.818339,0.0379106,0.572322,-0.236607,-0.00285891,-0.0411948,0.00114678,0.019665,0.0620981,-0.0794975,0.126523,0.0543739
1413393245305760512,-0.627565,2.69171,-6.76355,-0.0343792,0.819147,0.0388362,0.571233,-0.217477,0.000827221,-0.0992716,0.00113539,0.0196733,0.0621214,-0.0789898,0.126438,0.0537524
1413393245355760384,-0.637918,2.69167,-6.76699,-0.0318209,0.818707,0.0402399,0.571916,-0.204368,0.00349184,-0.140182,0.00113082,0.0196707,0.062143,-0.0784077,0.126507,0.0530403
1413393245405760512,-0.647732,2.69119,-6.77156,-0.0297422,0.817873,0.0411412,0.573156,-0.185662,-0.00554208,-0.171616,0.00113637,0.0196786,0.0621677,-0.0778372,0.126051,0.0518189
1413393245455760384,-0.657199,2.69083,-6.77958,-0.027147,0.816504,0.042502,0.575132,-0.185552,0.00302136,-0.213133,0.00113752,0.0196768,0.0621978,-0.0767028,0.125383,0.0498056
1413393245505760512,-0.666437,2.69089,-6.79023,-0.0249975,0.815146,0.0436175,0.57707,-0.17981,0.0156173,-0.238004,0.00113263,0.0196923,0.0622176,-0.0763776,0.124716,0.0489243
