#timestamp, p_RS_R_x [m], p_RS_R_y [m], p_RS_R_z [m], q_RS_w [], q_RS_x [], q_RS_y [], q_RS_z [], v_RS_R_x [m s^-1], v_RS_R_y [m s^-1], v_RS_R_z [m s^-1], b_w_RS_S_x [rad s^-1], b_w_RS_S_y [rad s^-1], b_w_RS_S_z [rad s^-1], b_a_RS_S_x [m s^-2], b_a_RS_S_y [m s^-2], b_a_RS_S_z [m s^-2]
1413393886005760512,-1.00198,0.479302,1.32954,0.589607,0.0239335,-0.807039,0.0218704,0.00343778,0.00673478,0.00291681,-0.000160376,0.0029324,0.0100684,-0.000403254,8.77964e-06,0.000121357
1413393886055760384,-1.00192,0.479488,1.32931,0.589576,0.023593,-0.807071,0.0218896,0.000583315,0.0035173,2.7053e-05,-0.000192211,0.00303511,0.010389,-0.00118545,2.36071e-05,0.0003666
1413393886105760512,-1.00236,0.479584,1.32938,0.58953,0.0228422,-0.807141,0.0213469,-0.00125932,0.00368893,-0.00384309,-0.000190984,0.00311068,0.0106743,-0.00196718,6.20241e-05,0.000629276
1413393886155760384,-0.997232,0.4823,1.32931,0.589592,0.0174088,-0.80733,0.0172238,-0.000291582,0.0043979,0.00150104,-0.000207522,0.00321402,0.0109763,-0.00291907,0.00012918,0.00095462
1413393886205760512,-1.01482,0.466097,1.32989,0.589759,0.0144697,-0.807307,0.0151394,0.00126485,0.00382679,0.000939573,-0.000187823,0.0033261,0.01129,-0.0040388,0.00033724,0.00113217
1413393886255760384,-0.990982,0.466772,1.33017,0.589725,0.0131137,-0.807376,0.0139591,0.00261189,0.00398936,-0.000925961,-0.000181275,0.00342944,0.0115963,-0.00483768,0.000324033,0.00125106
1413393886305760512,-1.02321,0.456352,1.32941,0.589589,0.0123312,-0.807497,0.0134457,0.00202454,0.00433689,-0.000182338,-0.000169448,0.00352,0.0118785,-0.00532542,0.000557566,0.000673911
1413393886355760384,-1.01653,0.464869,1.329,0.589698,0.0135461,-0.807381,0.0144572,0.00497762,0.00014692,-9.5639e-05,-0.000166413,0.0035931,0.0121603,-0.00574422,0.00045062,0.000660206
1413393886405760512,-1.0109,0.462579,1.32902,0.589839,0.0119557,-0.807321,0.0134281,0.000816849,-0.00210469,-0.00119192,-0.000170939,0.00367147,0.0124413,-0.00649294,0.00034069,0.00077909
1413393886455760384,-1.00897,0.462283,1.3287,0.589758,0.0104811,-0.807416,0.0124498,-0.00156035,0.000623409,-0.00080036,-0.000196091,0.00374452,0.0127557,-0.00663105,1.44408e-05,0.000798067
1413393886505760512,-1.00721,0.462585,1.32866,0.589678,0.0109178,-0.807465,0.0126726,-0.0010022,0.00117644,0.0014844,-0.000202851,0.00382344,0.0130123,-0.00732372,-5.06489e-05,0.000914453
1413393886555760384,-1.00654,0.463044,1.32886,0.58989,0.011144,-0.807305,0.0127986,-0.00132595,0.000883308,-4.76204e-06,-0.000193762,0.0038947,0.0132917,-0.00754468,7.44271e-05,0.00124827
1413393886605760512,-1.01309,0.461005,1.3306,0.589829,0.0100101,-0.807373,0.012253,-0.00354866,-0.00175682,-0.00231557,-0.000238558,0.00397104,0.013589,-0.00821256,-0.000439994,0.00119314
1413393886655760384,-1.01329,0.460833,1.3305,0.589791,0.0101956,-0.807395,0.0125048,0.000175203,-0.00201715,-0.00139281,-0.000271291,0.00404579,0.0138591,-0.00858849,-0.000801857,0.00110081
1413393886705760512,-1.01375,0.460366,1.33064,0.589873,0.0100085,-0.80734,0.012302,0.000558171,-0.00335049,0.000663767,-0.000290722,0.0041285,0.0141248,-0.00936861,-0.00084534,0.00118995
1413393886755760384,-1.01436,0.461694,1.33077,0.589931,0.00918166,-0.807317,0.0116788,-0.00183771,0.000982167,-0.000591779,-0.000307635,0.00421648,0.0144105,-0.0101304,-0.0011107,0.00118969
1413393886805760512,-1.01266,0.461225,1.33103,0.589835,0.00867387,-0.807398,0.0112584,-0.000453872,0.000656972,0.00127244,-0.000311929,0.0042837,0.0146667,-0.0108191,-0.000714213,0.00121531
1413393886855760384,-1.01261,0.460823,1.33103,0.58985,0.00838177,-0.807395,0.0109634,0.000941113,-0.00148869,0.0011063,-0.00029694,0.00436612,0.0149384,-0.0113517,-0.000601295,0.00102407
1413393886905760512,-1.01262,0.460085,1.33138,0.589827,0.00808298,-0.807419,0.0106113,0.00154569,-0.00124306,0.000587609,-0.000278166,0.00443618,0.0151779,-0.0113347,0.000298937,0.000606273
1413393886955760384,-1.01151,0.460216,1.33165,0.58979,0.00782202,-0.807452,0.0103486,-0.000845797,-0.000696535,-0.00132259,-0.000258888,0.00452651,0.0154325,-0.0117729,0.00101157,0.000628581
1413393887005760512,-1.00531,0.463977,1.3315,0.589783,0.00846118,-0.807446,0.0107504,-0.001518,0.000199465,-0.000867824,-0.000256245,0.00459802,0.0157008,-0.0121779,0.000923088,0.000344913
1413393887055760384,-1.00636,0.463801,1.33125,0.58982,0.00845445,-0.807418,0.0108434,-0.000900089,0.00189559,-0.00116743,-0.000245299,0.0046731,0.0159571,-0.0123648,0.000861701,0.000513284
1413393887105760512,-1.00791,0.460927,1.3314,0.589771,0.00666905,-0.807486,0.00951826,0.00087349,0.00224222,-0.0012791,-0.000237648,0.00475765,0.0162082,-0.0128195,0.00111053,0.000870641
1413393887155760384,-1.00098,0.464088,1.3316,0.58979,0.00495854,-0.8075,0.00821315,0.000948565,0.000331753,-0.000349015,-0.000217392,0.00481166,0.0164308,-0.0121917,0.00135195,0.00115641
1413393887205760512,-0.996752,0.466808,1.33168,0.58984,0.00333776,-0.807482,0.00708768,0.00121333,-0.00080317,-0.00129512,-0.000179144,0.00489039,0.0166978,-0.012779,0.00149808,0.00172834
1413393887255760384,-1.00744,0.463345,1.33316,0.589833,0.00233226,-0.807495,0.00651427,-0.000481072,-0.00176858,-0.000561037,-0.000202247,0.00498971,0.0169456,-0.013816,0.00102887,0.00213216
1413393887305760512,-1.0019,0.469187,1.33424,0.589835,0.000879177,-0.807505,0.00545591,0.000365579,0.000862887,0.00156621,-0.000216266,0.00506907,0.0171797,-0.0148428,0.000805643,0.00385536
1413393887355760384,-1.00155,0.469503,1.33439,0.58992,-0.000130747,-0.807447,0.00478101,0.000262876,0.00230603,0.00354211,-0.000210115,0.00516658,0.0174321,-0.0151432,0.000587292,0.00329402
1413393887405760512,-1.00139,0.470445,1.33453,0.589859,-0.000273569,-0.807493,0.00454407,-0.000820192,0.00126323,0.00241333,-0.000219096,0.00522059,0.0176767,-0.0150985,0.000942763,0.00293266
1413393887455760384,-0.999011,0.470848,1.33505,0.589836,-0.00150101,-0.807513,0.00370198,-0.00186626,-0.00187755,0.00622897,-0.000200127,0.00529039,0.0179258,-0.0146925,0.00147856,0.00295149
1413393887505760512,-0.997332,0.47202,1.33549,0.589807,-0.00220419,-0.807535,0.00301495,-0.00300763,-0.0049364,0.00606304,-0.000214725,0.0053941,0.0181649,-0.0157272,0.000854072,0.00353706
1413393887555760384,-1.00235,0.468384,1.33555,0.589907,-0.00318722,-0.807461,0.00245488,-0.00227208,-0.00209455,0.00709497,-0.000199655,0.00550178,0.0184107,-0.0173816,0.0015284,0.00387759
1413393887605760512,-1.00225,0.468831,1.33614,0.589979,-0.00421758,-0.807406,0.00139081,0.00117659,-0.000752617,0.015996,-0.000166726,0.00559981,0.01866,-0.0176326,0.00215553,0.00294555
1413393887655760384,-1.00789,0.468278,1.33636,0.590323,-0.0053778,-0.807148,0.00113362,-0.000569317,-0.00645499,0.00518872,-0.000174819,0.00567533,0.0188366,-0.0189794,0.00176442,0.00272043
1413393887705760512,-0.991689,0.46711,1.33605,0.590053,-0.00149485,-0.807353,0.00396642,-0.00205641,-0.000760267,0.00346246,-0.000164071,0.0058113,0.0191605,-0.0191806,0.00417217,0.00422769
1413393887755760384,-0.987511,0.466381,1.3366,0.590246,-0.00380361,-0.807211,0.00237202,5.74566e-05,0.00030243,-0.00152644,-0.000175945,0.00588293,0.0193228,-0.0196699,0.00275962,0.0045845
1413393887805760512,-0.991542,0.470665,1.33677,0.590108,-0.00575129,-0.807303,0.000639175,0.00120899,0.0020167,-0.00130471,-0.000198478,0.00604026,0.0195103,-0.0228287,0.00227907,0.00498902
1413393887855760384,-0.99115,0.471725,1.33698,0.590228,-0.00607193,-0.807213,0.00057413,0.00236143,0.00603413,-0.00572676,-0.000183775,0.00618367,0.0198769,-0.0232567,0.00362451,0.00497164
1413393887905760512,-0.992572,0.473012,1.33676,0.590027,-0.00582869,-0.807362,0.000583102,0.00349949,0.00738189,-0.00034145,-0.000171989,0.00622213,0.0200884,-0.0202168,0.00545265,0.00462741
1413393887955760384,-0.990967,0.474004,1.33717,0.590235,-0.00695588,-0.807201,0.000233736,0.00438779,0.00755548,-0.00507163,-0.000168659,0.00628124,0.0203219,-0.0191425,0.00681895,0.00359677
1413393888005760512,-0.991299,0.475834,1.3376,0.590292,-0.00708237,-0.807159,-6.56258e-06,0.00140771,0.0085453,-0.0019874,-0.000173662,0.0063466,0.0205382,-0.0189254,0.00858688,0.00206485
1413393888055760384,-0.988479,0.476137,1.3381,0.590146,-0.0069206,-0.807267,0.000110995,8.97537e-05,0.00926084,-0.00155486,-0.000192295,0.00635021,0.020701,-0.0157435,0.00905943,0.00181517
1413393888105760512,-0.990212,0.476368,1.3381,0.590093,-0.00712539,-0.807304,2.41079e-05,0.0019653,0.00531766,-0.00107836,-0.000210887,0.0063699,0.0208719,-0.0154188,0.00909716,0.00262935
1413393888155760384,-0.992425,0.477851,1.33845,0.590299,-0.00792495,-0.807145,-0.000423562,0.000558407,0.000834396,0.000490447,-0.000211404,0.00649906,0.0210741,-0.0191991,0.0118128,0.00492328
1413393888205760512,-0.992681,0.477943,1.33843,0.590146,-0.00813427,-0.807255,-0.000571379,-0.00230014,-0.0048111,-0.000946008,-0.000219656,0.00662692,0.02134,-0.020143,0.0116055,0.00696316
1413393888255760384,-0.992022,0.477422,1.33845,0.590217,-0.00878111,-0.807196,-0.00108643,-0.00118493,-0.0100764,0.00261346,-0.000226135,0.00659898,0.021527,-0.0167611,0.0126158,0.00658548
1413393888305760512,-0.990758,0.476352,1.33845,0.590207,-0.00923708,-0.807198,-0.00141235,-0.00224336,-0.0101522,0.00099631,-0.000247914,0.00659952,0.0217228,-0.0164061,0.0116403,0.0085794
1413393888355760384,-0.987775,0.474558,1.33831,0.590206,-0.00967111,-0.807193,-0.00145125,-0.00435611,-0.0148936,0.00402905,-0.000237543,0.00660028,0.022021,-0.0139974,0.0115508,0.0104207
1413393888405760512,-0.986356,0.473269,1.33852,0.590234,-0.0110591,-0.807152,-0.00260161,-0.00425923,-0.0128288,0.00172103,-0.000320618,0.00662438,0.0221228,-0.0151132,0.00908264,0.0131611
1413393888455760384,-0.982963,0.471372,1.33939,0.5898,-0.0105945,-0.807477,-0.00224916,-0.00620968,-0.0120856,0.00539543,-0.000275764,0.00663736,0.0226203,-0.011821,0.00892444,0.0199249
1413393888505760512,-0.984141,0.472219,1.3401,0.589577,-0.0114486,-0.807625,-0.00302128,-0.00286611,-0.00879191,0.00575914,-0.000379083,0.00675981,0.0228286,-0.0142295,0.00455892,0.0313136
1413393888555760384,-0.986402,0.471674,1.34034,0.589764,-0.0112426,-0.807491,-0.00302706,-0.00123989,-0.00865831,-5.39326e-05,-0.00043127,0.00682246,0.0231413,-0.0137536,0.00308217,0.0334246
1413393888605760512,-1.02807,0.485594,1.33939,0.58843,0.00667191,-0.808458,0.0100358,-0.00558436,-0.00698254,0.0150375,-0.000739941,0.00690647,0.0231676,-0.00962746,-0.0101401,0.0678147
1413393888655760384,-1.03083,0.485627,1.34278,0.586956,0.00760605,-0.809511,0.0107862,-0.00677921,-0.00288117,0.0169175,-0.00085692,0.00703352,0.0231294,-0.00246909,-0.0114479,0.103251
1413393888705760512,-1.0362,0.486759,1.34463,0.584316,0.00724987,-0.811432,0.00998312,-0.00695769,-0.00412439,0.01263,-0.000995639,0.0075624,0.023313,0.0028016,-0.018056,0.161339
1413393888755760384,-1.04223,0.487911,1.33663,0.582884,0.00758851,-0.812453,0.0104409,-0.00894593,-0.00436594,0.0140256,-0.00107189,0.00815968,0.0235784,0.00257303,-0.0160176,0.197298
1413393888805760512,-1.04528,0.487859,1.34261,0.581916,0.00625101,-0.813168,0.00960167,-0.00656251,-0.00348598,0.00598573,-0.00109903,0.00799801,0.0235769,0.0223519,-0.00940174,0.217566
1413393888855760384,-1.04622,0.486264,1.3456,0.580311,0.0040018,-0.814352,0.0073951,-0.00488323,-0.00136936,0.0150602,-0.00104116,0.00817703,0.0237533,0.035037,-0.014876,0.249492
1413393888905760512,-1.04629,0.486303,1.34429,0.579582,0.00278385,-0.814885,0.0062454,-0.00421825,0.000609787,0.0194807,-0.00110478,0.00816745,0.023881,0.0491168,-0.0151461,0.269775
1413393888955760384,-1.04669,0.486504,1.34343,0.57856,0.00138135,-0.815625,0.00472986,-0.00385542,-0.00698523,0.0263169,-0.00109339,0.00822489,0.0240537,0.0621553,-0.0224609,0.293965
1413393889005760512,-1.04414,0.485396,1.34548,0.578203,0.000164112,-0.815886,0.0033563,-0.00529556,-0.00010718,0.0237292,-0.00109279,0.00817782,0.0242154,0.0748802,-0.0305293,0.313663
1413393889055760384,-1.04306,0.484468,1.34708,0.577852,-0.000286818,-0.816137,0.00251169,-0.0064049,-0.00265507,0.0217247,-0.00109842,0.00818162,0.0243508,0.079548,-0.0312019,0.31991
1413393889105760512,-1.04348,0.483949,1.34895,0.577374,-0.00150208,-0.816476,0.00210872,-0.00820948,-0.00210598,0.0269034,-0.00106843,0.00830308,0.024575,0.0839276,-0.0369919,0.334639
1413393889155760384,-1.04295,0.483657,1.35006,0.577463,-0.00199098,-0.816413,0.00139434,-0.00263649,0.00145826,0.0177248,-0.00105915,0.00834023,0.0247591,0.08675,-0.0372014,0.339774
1413393889205760512,-1.04205,0.483387,1.35114,0.577334,-0.00273005,-0.816502,0.00131898,-0.00208537,0.00272802,0.0106373,-0.00110336,0.00846455,0.0249663,0.0890148,-0.038074,0.347431
1413393889255760384,-1.04122,0.482912,1.35235,0.577616,-0.00332949,-0.816301,0.00108884,-0.00330979,0.000292437,0.0171008,-0.00110042,0.00853396,0.0251109,0.0922848,-0.0395541,0.351557
1413393889305760512,-1.03974,0.482141,1.35321,0.576568,-0.00330156,-0.817042,2.77619e-06,-0.00227963,0.00584956,-0.00839128,-0.00111809,0.00861017,0.0253267,0.0937489,-0.0464462,0.360277
1413393889355760384,-1.0382,0.482477,1.35343,0.57523,-0.00431824,-0.81798,-0.000698963,0.00704086,0.0116145,-0.00986503,-0.00112452,0.0086406,0.0254463,0.0959947,-0.0508568,0.364838
1413393889405760512,-1.03657,0.483023,1.35331,0.574183,-0.00504662,-0.81871,-0.000971582,0.0123411,0.0130754,-0.00933237,-0.00114128,0.00873687,0.0256517,0.0937689,-0.0532837,0.366254
1413393889455760384,-1.03552,0.483289,1.35408,0.573208,-0.00563973,-0.819389,-0.00136262,0.0163408,0.0167323,-0.019868,-0.00119218,0.00883559,0.0258251,0.0924978,-0.0556201,0.374573
1413393889505760512,-1.03431,0.483911,1.35381,0.571229,-0.00680644,-0.820761,-0.00145157,0.0224177,0.020369,-0.00344366,-0.00120721,0.0088451,0.0259648,0.0936417,-0.0571323,0.377266
1413393889555760384,-1.03216,0.48471,1.35294,0.566052,-0.00760337,-0.824331,-0.00237369,0.0199096,0.0379355,0.0101981,-0.00121876,0.0089588,0.026181,0.0926297,-0.0578883,0.381266
1413393889605760512,-1.0292,0.486325,1.35489,0.561079,-0.00864485,-0.827711,-0.00330683,0.0393441,0.049508,0.0377517,-0.0012314,0.00902894,0.0263718,0.0923635,-0.0589282,0.38282
1413393889655760384,-1.02578,0.488522,1.35761,0.555363,-0.00863228,-0.83154,-0.00616021,0.0298615,0.0717411,0.0934307,-0.00121831,0.00905341,0.0265285,0.0933644,-0.0581283,0.381458
1413393889705760512,-1.02176,0.490308,1.36132,0.551743,-0.0067712,-0.833912,-0.0111109,0.0270393,0.0760658,0.163726,-0.00122333,0.00906236,0.026651,0.0953489,-0.0593452,0.378905
1413393889755760384,-1.02008,0.493768,1.37048,0.546909,-0.00502172,-0.83704,-0.0151297,0.0159292,0.0814364,0.278729,-0.00122127,0.0091605,0.0268595,0.0950091,-0.0576366,0.381227
1413393889805760512,-1.01922,0.497514,1.38408,0.544467,-0.00358901,-0.838558,-0.0190608,0.00144373,0.0861041,0.377487,-0.00125374,0.0092058,0.0270409,0.094545,-0.0598693,0.376343
1413393889855760384,-1.01929,0.501559,1.40531,0.541324,0.000349417,-0.840446,-0.0248648,-0.0203878,0.0656904,0.483766,-0.0012554,0.00922327,0.0271961,0.0958187,-0.0556732,0.371865
1413393889905760512,-1.02034,0.505711,1.43123,0.540451,0.00457677,-0.840821,-0.0301711,-0.0396008,0.0536496,0.594161,-0.00129472,0.00917857,0.0273051,0.103308,-0.050725,0.371018
1413393889955760384,-1.0231,0.508749,1.46437,0.542838,0.00902648,-0.839004,-0.0362885,-0.0788267,0.0219769,0.672135,-0.00139569,0.00929375,0.0274942,0.104825,-0.049564,0.369054
1413393890005760512,-1.02725,0.509247,1.50162,0.547196,0.0119767,-0.835969,-0.0398579,-0.11728,-0.0234521,0.731521,-0.0014244,0.00942845,0.0277968,0.107156,-0.0453215,0.368631
1413393890055760384,-1.0344,0.507962,1.54031,0.551645,0.0133228,-0.832963,-0.0410126,-0.153798,-0.0599267,0.733332,-0.00141507,0.00952251,0.0280717,0.111975,-0.0409569,0.364402
1413393890105760512,-1.04232,0.503893,1.57403,0.555099,0.0105358,-0.830884,-0.0372256,-0.185031,-0.111069,0.717534,-0.00142412,0.00961146,0.0282032,0.117625,-0.0393539,0.362706
1413393890155760384,-1.05132,0.497158,1.60472,0.558703,0.00736566,-0.82868,-0.0329551,-0.200226,-0.142623,0.630319,-0.00145399,0.00964198,0.0283673,0.123754,-0.0408922,0.36416
1413393890205760512,-1.06053,0.488594,1.62909,0.561267,0.00388732,-0.827129,-0.0286557,-0.212425,-0.175719,0.51023,-0.00139963,0.00969458,0.0284534,0.121604,-0.0338537,0.366397
1413393890255760384,-1.07042,0.478707,1.651,0.563896,0.000350384,-0.825481,-0.0245389,-0.220398,-0.202535,0.406634,-0.00135703,0.00965291,0.0286925,0.122169,-0.0297862,0.367081
1413393890305760512,-1.08085,0.467854,1.66839,0.565127,-0.00257803,-0.82473,-0.0210914,-0.21811,-0.214399,0.290863,-0.00138439,0.00962833,0.0287938,0.124572,-0.0318213,0.372015
1413393890355760384,-1.08837,0.455191,1.67977,0.565902,-0.0049593,-0.824247,-0.0186208,-0.214146,-0.227663,0.17522,-0.00132384,0.00959377,0.0291567,0.121365,-0.0227827,0.380361
1413393890405760512,-1.09847,0.443209,1.68518,0.566445,-0.00695631,-0.82391,-0.0162376,-0.209452,-0.234905,0.0721628,-0.00130935,0.00963679,0.0292333,0.118789,-0.0235613,0.380657
1413393890455760384,-1.10851,0.431027,1.68653,0.569242,-0.00905626,-0.822002,-0.0139406,-0.207369,-0.239546,-0.00348074,-0.00129168,0.00976112,0.0293947,0.115844,-0.0251475,0.377323
1413393890505760512,-1.11797,0.418437,1.68447,0.575893,-0.0109824,-0.81737,-0.0114992,-0.203834,-0.254224,-0.00848054,-0.0013331,0.00990216,0.0294544,0.111776,-0.0256734,0.374357
1413393890555760384,-1.12727,0.40594,1.68475,0.585218,-0.0123857,-0.810727,-0.0093315,-0.188582,-0.247114,0.0103729,-0.00140421,0.0100525,0.0295258,0.103892,-0.0290731,0.372273
1413393890605760512,-1.13579,0.393639,1.68554,0.592481,-0.0125126,-0.805429,-0.00965279,-0.154703,-0.23918,0.0218874,-0.00150548,0.010039,0.0297095,0.106322,-0.0355436,0.374534
1413393890655760384,-1.14266,0.381534,1.68601,0.593749,-0.0117322,-0.804494,-0.0106842,-0.117752,-0.243764,0.00837069,-0.00149736,0.0100459,0.0297079,0.104542,-0.035087,0.377167
1413393890705760512,-1.1477,0.369412,1.68659,0.590163,-0.0110398,-0.807121,-0.011904,-0.0866418,-0.240616,0.0178518,-0.00145212,0.0100555,0.0299833,0.0963423,-0.0319149,0.377312
1413393890755760384,-1.15124,0.357318,1.68801,0.585127,-0.00993298,-0.810769,-0.0134519,-0.0606125,-0.24427,0.0380361,-0.00143562,0.0101021,0.0301828,0.0935041,-0.0302848,0.382671
1413393890805760512,-1.1536,0.345095,1.69035,0.579636,-0.0096099,-0.814698,-0.0140252,-0.040742,-0.244865,0.0595513,-0.00139894,0.0101424,0.0303002,0.0911313,-0.0285922,0.382424
1413393890855760384,-1.15528,0.332954,1.69395,0.575079,-0.00914218,-0.817904,-0.0153108,-0.0269273,-0.24123,0.0831972,-0.00146875,0.0101721,0.0304482,0.0887398,-0.0313105,0.385446
1413393890905760512,-1.15684,0.320541,1.69882,0.571825,-0.00913749,-0.820179,-0.0154694,-0.0278972,-0.254099,0.105301,-0.00143591,0.0102204,0.030626,0.0876534,-0.03092,0.387174
1413393890955760384,-1.15812,0.307771,1.70471,0.569406,-0.00834821,-0.821849,-0.0164671,-0.0209189,-0.256506,0.12488,-0.00144489,0.0102459,0.0307893,0.0879358,-0.0304036,0.389254
1413393891005760512,-1.15948,0.294709,1.71157,0.567512,-0.0080361,-0.82315,-0.017007,-0.0214983,-0.264085,0.144097,-0.00144798,0.0102651,0.0309383,0.0873421,-0.0303828,0.392274
1413393891055760384,-1.16129,0.281253,1.71924,0.566053,-0.00689651,-0.824148,-0.0177656,-0.0266599,-0.276315,0.165687,-0.00136095,0.0101587,0.0310667,0.0905212,-0.0271982,0.392918
1413393891105760512,-1.16317,0.267501,1.7277,0.566305,-0.00708809,-0.82398,-0.0174448,-0.0313541,-0.275079,0.19864,-0.00134282,0.0102123,0.0312243,0.0893357,-0.0266848,0.396496
1413393891155760384,-1.16507,0.253444,1.7371,0.565675,-0.00740377,-0.824431,-0.0164447,-0.0319737,-0.28284,0.210825,-0.00134682,0.0102941,0.0314123,0.0874521,-0.0265395,0.403782
1413393891205760512,-1.16702,0.239267,1.74683,0.566092,-0.00732893,-0.824154,-0.0159622,-0.038658,-0.277667,0.193619,-0.00128823,0.0103252,0.0315047,0.0858637,-0.0239268,0.408136
1413393891255760384,-1.16878,0.225181,1.75475,0.567507,-0.00747849,-0.823197,-0.0149992,-0.0279979,-0.278807,0.104903,-0.00126506,0.010409,0.0316709,0.083336,-0.0203896,0.412114
1413393891305760512,-1.17043,0.211185,1.7605,0.574166,-0.00700353,-0.81858,-0.0145413,-0.0272809,-0.281477,0.0635489,-0.0012693,0.0105001,0.0318647,0.0833379,-0.0189361,0.413947
1413393891355760384,-1.17187,0.197125,1.76294,0.591582,-0.00626356,-0.806105,-0.0136415,-0.0101915,-0.278673,0.0190757,-0.00123183,0.0105329,0.0319127,0.0808024,-0.0168821,0.40862
1413393891405760512,-1.17157,0.182949,1.76244,0.615057,-0.00610681,-0.788369,-0.0118572,0.0474564,-0.285107,-0.0446123,-0.00120089,0.0105725,0.0321096,0.0818253,-0.0150097,0.409598
1413393891455760384,-1.16753,0.168242,1.7596,0.63836,-0.00570634,-0.769657,-0.00956066,0.131994,-0.304251,-0.0759432,-0.00118886,0.0105784,0.0322176,0.0831573,-0.0156369,0.40642
1413393891505760512,-1.15861,0.153138,1.75526,0.655868,-0.00546703,-0.754803,-0.00889592,0.241641,-0.292881,-0.0868127,-0.00116713,0.0105832,0.0323483,0.0850425,-0.0177137,0.405067
1413393891555760384,-1.14317,0.13731,1.74701,0.666442,-0.00610569,-0.745501,-0.0066833,0.361082,-0.31673,-0.0829306,-0.00114747,0.0105922,0.03249,0.085752,-0.020592,0.398505
1413393891605760512,-1.12047,0.121385,1.73957,0.670143,-0.00452516,-0.742157,-0.00947081,0.507701,-0.318764,-0.0749366,-0.00112987,0.0105606,0.0325808,0.0854999,-0.0231871,0.392657
1413393891655760384,-1.09073,0.105009,1.73836,0.670925,-0.00392592,-0.741457,-0.00929753,0.670779,-0.327785,-0.0437163,-0.00108465,0.0105332,0.0327262,0.0879951,-0.0248823,0.387934
1413393891705760512,-1.05359,0.0877153,1.73649,0.670837,-0.00330241,-0.741525,-0.0103627,0.803311,-0.347996,-0.0167458,-0.00109432,0.0105152,0.0328383,0.0877264,-0.0280271,0.384534
1413393891755760384,-1.01087,0.0704436,1.73783,0.669714,-0.00316158,-0.742535,-0.0107313,0.933611,-0.355077,0.0228763,-0.00107497,0.0105773,0.0329715,0.0876783,-0.0310129,0.383546
1413393891805760512,-0.961846,0.0524937,1.73845,0.667931,-0.00225851,-0.744117,-0.0123542,1.05055,-0.350523,0.0757856,-0.00106949,0.010589,0.0330948,0.0894941,-0.0327154,0.380848
1413393891855760384,-0.906243,0.0345193,1.74067,0.663274,-0.00280235,-0.748253,-0.0133075,1.16295,-0.364719,0.0999435,-0.00107265,0.0106617,0.0331891,0.0904379,-0.0332015,0.37839
1413393891905760512,-0.845413,0.0162409,1.74438,0.653754,-0.00361366,-0.756565,-0.0142017,1.27481,-0.365869,0.105084,-0.00105211,0.0107169,0.033311,0.0897317,-0.0361061,0.377287
1413393891955760384,-0.779256,-0.00248622,1.74846,0.638741,-0.00461035,-0.769266,-0.0147833,1.36801,-0.373709,0.0740681,-0.00105135,0.0107598,0.033435,0.0907995,-0.0406806,0.374354
1413393892005760512,-0.708268,-0.0214266,1.75319,0.619927,-0.00591562,-0.784493,-0.015037,1.43618,-0.375037,0.115489,-0.00106056,0.0108024,0.0335488,0.0881314,-0.0441883,0.372442
1413393892055760384,-0.63414,-0.040189,1.75897,0.601837,-0.00662878,-0.798435,-0.0157801,1.48979,-0.380018,0.136751,-0.00102648,0.0108618,0.0336836,0.0876537,-0.0432638,0.374002
1413393892105760512,-0.559662,-0.0586988,1.76896,0.587642,-0.00664203,-0.808912,-0.0171471,1.51247,-0.376312,0.180499,-0.00101024,0.0109044,0.033832,0.0895792,-0.0433823,0.376667
1413393892155760384,-0.48391,-0.0771468,1.78261,0.575625,-0.00758376,-0.817469,-0.0185042,1.52111,-0.373163,0.222316,-0.00101795,0.0109672,0.0339712,0.0912894,-0.0431616,0.382058
1413393892205760512,-0.408139,-0.0957738,1.79254,0.567619,-0.00796981,-0.823021,-0.019544,1.51187,-0.37561,0.209723,-0.00104235,0.0109891,0.0340835,0.0957345,-0.0438842,0.393447
1413393892255760384,-0.33227,-0.114554,1.8046,0.56273,-0.00803889,-0.826321,-0.0215136,1.49965,-0.368961,0.181417,-0.00103202,0.0110102,0.0342405,0.0989723,-0.0424914,0.398635
1413393892305760512,-0.25816,-0.133297,1.82389,0.559842,-0.00951109,-0.828257,-0.0218462,1.47123,-0.367186,0.134888,-0.00103631,0.0110519,0.0344062,0.106352,-0.038914,0.410561
1413393892355760384,-0.185468,-0.151311,1.83368,0.55648,-0.00999415,-0.830487,-0.0228362,1.45574,-0.365127,0.0826849,-0.0010292,0.0110634,0.0345769,0.108416,-0.0417655,0.412297
1413393892405760512,-0.115537,-0.168759,1.84302,0.552728,-0.0112173,-0.832964,-0.0231671,1.44292,-0.367825,0.0321341,-0.000997235,0.0110783,0.0347132,0.115184,-0.0336169,0.421859
1413393892455760384,-0.0486838,-0.185343,1.85281,0.549038,-0.0123404,-0.835373,-0.0235955,1.41546,-0.365661,0.00286057,-0.00103161,0.0111554,0.034866,0.124495,-0.0251269,0.444912
1413393892505760512,0.0178075,-0.201607,1.85363,0.546745,-0.0125956,-0.836842,-0.0246026,1.40055,-0.376009,-0.0536021,-0.00102152,0.0112257,0.0349449,0.136428,-0.0187832,0.461476
1413393892555760384,0.0828573,-0.218661,1.83927,0.54364,-0.0141235,-0.838844,-0.0244149,1.37689,-0.385303,-0.0982274,-0.00104921,0.0112804,0.0350578,0.144553,-0.0131002,0.480728
1413393892605760512,0.148799,-0.238105,1.81607,0.539572,-0.0152043,-0.841441,-0.0246532,1.34951,-0.398854,-0.128917,-0.00105814,0.0113864,0.0351297,0.144488,-0.0157986,0.484662
1413393892655760384,0.214722,-0.258422,1.80508,0.532604,-0.0156717,-0.845841,-0.0252782,1.28378,-0.3973,-0.135618,-0.0010848,0.0113857,0.0352132,0.154689,-0.0173085,0.494174
1413393892705760512,0.279552,-0.279903,1.79779,0.52283,-0.0163964,-0.851881,-0.0260492,1.22342,-0.398955,-0.135987,-0.00113295,0.0114173,0.0352391,0.16513,-0.0147126,0.502317
1413393892755760384,0.338759,-0.299744,1.79508,0.510803,-0.0167619,-0.85914,-0.0259998,1.15829,-0.407538,-0.141104,-0.00110112,0.0114426,0.0353467,0.173805,-0.0099898,0.506166
1413393892805760512,0.394126,-0.319831,1.7945,-0.497638,0.01635,0.866818,0.0267454,1.06182,-0.404553,-0.124895,-0.00105495,0.0114881,0.0354753,0.178487,-0.0041452,0.513687
1413393892855760384,0.444077,-0.340276,1.79391,-0.486619,0.0164456,0.873039,0.027084,0.962174,-0.400307,-0.112884,-0.00105274,0.0115657,0.0355269,0.180083,0.00233898,0.523648
1413393892905760512,0.487211,-0.359452,1.79114,-0.475724,0.0167836,0.879033,0.0265771,0.846329,-0.418944,-0.0899115,-0.00106382,0.011666,0.0356626,0.18131,0.00623652,0.532312
1413393892955760384,0.524972,-0.379671,1.7911,-0.466084,0.0160338,0.884209,0.0261304,0.728732,-0.423933,-0.075247,-0.00104118,0.0116576,0.035743,0.18867,0.00939808,0.536373
1413393893005760512,0.55634,-0.399277,1.79045,-0.458453,0.0149094,0.888192,0.0267074,0.608411,-0.433633,-0.0397755,-0.0010043,0.011685,0.0358479,0.194459,0.0157463,0.540481
1413393893055760384,0.582585,-0.420614,1.79114,-0.454677,0.0142078,0.890162,0.0260462,0.474047,-0.446404,-0.00881637,-0.000965037,0.0116965,0.035992,0.200063,0.0183514,0.541768
1413393893105760512,0.601895,-0.44264,1.7902,-0.453286,0.0139048,0.890898,0.025267,0.341763,-0.4448,0.00907947,-0.000938993,0.0118495,0.0361247,0.19893,0.0185533,0.544359
1413393893155760384,0.615406,-0.465248,1.79161,-0.456416,0.0135864,0.889335,0.0241519,0.203424,-0.460884,0.0537244,-0.000907429,0.0118218,0.0362751,0.205346,0.0223431,0.545133
1413393893205760512,0.621429,-0.487387,1.79505,-0.461842,0.0118944,0.88655,0.0242699,0.0823092,-0.462358,0.0619018,-0.000876978,0.0117648,0.0363114,0.210219,0.0251418,0.547139
1413393893255760384,0.62321,-0.510831,1.79899,-0.46753,0.0117417,0.883575,0.0239296,-0.0426272,-0.47337,0.0985103,-0.000891867,0.0118274,0.0364188,0.208601,0.0236311,0.542719
1413393893305760512,0.618822,-0.534807,1.80078,-0.47297,0.0141154,0.880713,0.0210916,-0.145646,-0.486631,0.0924743,-0.000880951,0.0119064,0.0365243,0.206074,0.0249037,0.539843
1413393893355760384,0.607602,-0.557312,1.80387,-0.476066,0.0177475,0.879069,0.0168571,-0.244894,-0.48757,0.112093,-0.000840838,0.0118944,0.0366438,0.206574,0.0275699,0.539661
1413393893405760512,0.593539,-0.580055,1.81187,-0.480218,0.0220605,0.876785,0.0123356,-0.339623,-0.47673,0.119007,-0.000867141,0.0119519,0.0367241,0.205313,0.0277544,0.535175
1413393893455760384,0.574318,-0.604093,1.81953,-0.483142,0.0261123,0.875117,0.00790373,-0.431443,-0.476763,0.122618,-0.000850032,0.0119912,0.0368211,0.204982,0.027573,0.533548
1413393893505760512,0.550063,-0.628118,1.8271,-0.484549,0.0290463,0.874274,0.00371106,-0.522662,-0.463363,0.129157,-0.000857027,0.0119759,0.0369515,0.20472,0.0231515,0.532167
1413393893555760384,0.523051,-0.652194,1.82876,-0.486592,0.0311719,0.873073,0.00056805,-0.604138,-0.43308,0.126388,-0.00087314,0.0119911,0.0371022,0.208349,0.0164673,0.525465
1413393893605760512,0.490619,-0.673419,1.83052,-0.489141,0.0336286,0.871551,-0.00304214,-0.682932,-0.413939,0.121533,-0.000866044,0.0119696,0.03718,0.206598,0.0145844,0.520694
1413393893655760384,0.45386,-0.692699,1.83749,-0.489204,0.0358712,0.871404,-0.00682661,-0.759564,-0.38175,0.112143,-0.000859933,0.0120202,0.0373195,0.208288,0.0094324,0.520588
1413393893705760512,0.412873,-0.711761,1.84021,-0.49026,0.0389539,0.870644,-0.010333,-0.841743,-0.340513,0.11204,-0.000884507,0.0120656,0.0374624,0.204854,0.000974794,0.516531
1413393893755760384,0.368749,-0.729313,1.84118,-0.49371,0.0408598,0.868571,-0.012858,-0.917448,-0.31086,0.116352,-0.000881369,0.0121228,0.0376042,0.197786,-0.00345855,0.514691
1413393893805760512,0.318113,-0.742725,1.84614,-0.49734,0.041218,0.866473,-0.0133639,-0.990653,-0.253897,0.13039,-0.000980626,0.0120684,0.0376534,0.20475,-0.00988892,0.522845
1413393893855760384,0.265157,-0.754799,1.85251,0.505675,-0.0419441,-0.861608,0.012782,-1.07025,-0.215961,0.135861,-0.001037,0.0120275,0.0378029,0.209037,-0.0150019,0.521859
1413393893905760512,0.211174,-0.766656,1.86206,0.514715,-0.0402424,-0.856348,0.010813,-1.13248,-0.177093,0.12725,-0.00100409,0.01197,0.037903,0.205103,-0.0120282,0.517426
1413393893955760384,0.154133,-0.776125,1.86389,0.525164,-0.0391307,-0.850053,0.00898433,-1.18288,-0.121182,0.154042,-0.0010367,0.0119307,0.0380445,0.206056,-0.0188197,0.513341
1413393894005760512,0.0889247,-0.783132,1.86406,0.53326,-0.0387669,-0.845033,0.00702579,-1.20961,-0.0821339,0.14612,-0.00110041,0.0118442,0.0382217,0.208085,-0.0379688,0.502022
1413393894055760384,0.0236304,-0.787875,1.8594,0.53848,-0.0375453,-0.841782,0.00562883,-1.24016,-0.0588267,0.14699,-0.00138213,0.0116939,0.0384213,0.207989,-0.0705265,0.511823
1413393894105760512,-0.0123719,-0.823196,1.71821,0.564755,-0.0298096,-0.82471,-0.00410378,-1.22666,-0.0324461,0.218981,-0.00117117,0.0102519,0.0387495,0.000898693,-0.292412,0.0295286
1413393894155760384,-0.0688806,-0.821317,1.72685,0.567168,-0.0300933,-0.823049,-0.00218017,-1.23885,-0.0271547,0.226641,-0.00127487,0.0096648,0.0389676,0.0139413,-0.282656,0.0018934
1413393894205760512,-0.0521112,-0.757809,1.69108,0.579811,-0.0193608,-0.814461,0.0098638,-1.23438,-0.0161988,0.26505,-0.00174337,0.00880629,0.0390757,-0.0886397,-0.223859,-0.260607
1413393894255760384,-0.111622,-0.757846,1.70272,0.581586,-0.0200836,-0.81317,0.0104467,-1.23998,0.0187909,0.276723,-0.00177246,0.00862911,0.0392792,-0.103731,-0.222333,-0.292199
1413393894305760512,-0.171686,-0.756829,1.71581,0.582196,-0.0212404,-0.812681,0.0120494,-1.24098,0.0433581,0.245781,-0.00179807,0.00843646,0.0393901,-0.111083,-0.219202,-0.310469
1413393894355760384,-0.232674,-0.754215,1.72554,0.583497,-0.021636,-0.811732,0.0123955,-1.25409,0.0737393,0.172796,-0.00179086,0.00815353,0.0394716,-0.117044,-0.220098,-0.334801
1413393894405760512,-0.29414,-0.750791,1.72583,0.584866,-0.0204711,-0.810798,0.0108634,-1.26834,0.0989439,0.0829492,-0.00176142,0.0080627,0.0396133,-0.129402,-0.223619,-0.365515
1413393894455760384,-0.38175,-0.736203,1.75086,0.57526,-0.021873,-0.817597,0.0114872,-1.2781,0.124803,-0.0416624,-0.00190186,0.00841083,0.0397162,-0.0401787,-0.158255,-0.151363
1413393894505760512,-0.444636,-0.73064,1.74826,0.57737,-0.0199388,-0.816189,0.00900657,-1.28854,0.148059,-0.105353,-0.00193632,0.00817225,0.0398157,-0.044033,-0.173757,-0.173372
1413393894555760384,-0.503586,-0.722729,1.73656,0.582892,-0.0169936,-0.812354,0.00536579,-1.3027,0.175643,-0.141494,-0.00196784,0.00781283,0.0397377,-0.0700923,-0.190803,-0.26083
1413393894605760512,-0.558005,-0.718187,1.7177,0.588306,-0.0138241,-0.808519,0.00144943,-1.31751,0.183384,-0.151654,-0.00196268,0.0073652,0.0397119,-0.102054,-0.226129,-0.365985
1413393894655760384,-0.624102,-0.708337,1.71042,0.590348,-0.0126938,-0.807048,-0.000887271,-1.3239,0.205897,-0.142924,-0.00199003,0.00714579,0.0396244,-0.0961557,-0.228055,-0.372236
1413393894705760512,-0.690013,-0.697729,1.70282,0.591448,-0.0116084,-0.806255,-0.00256813,-1.31766,0.226417,-0.131601,-0.00199502,0.00695336,0.0395367,-0.0896693,-0.229708,-0.377805
1413393894755760384,-0.755831,-0.686382,1.69677,0.59263,-0.0101617,-0.805402,-0.00365013,-1.31779,0.22519,-0.116276,-0.00204461,0.00677491,0.0394355,-0.0831951,-0.232349,-0.384143
1413393894805760512,-0.821214,-0.674493,1.69138,0.592785,-0.00975761,-0.805295,-0.00314019,-1.31055,0.252739,-0.102057,-0.00207072,0.00659284,0.0393303,-0.0764693,-0.235248,-0.39099
1413393894855760384,-0.886542,-0.661738,1.687,0.593969,-0.00975968,-0.804424,-0.00283771,-1.29936,0.262455,-0.0708383,-0.00204505,0.00655729,0.0392783,-0.0690496,-0.237768,-0.398084
1413393894905760512,-0.950664,-0.64857,1.68364,0.596626,-0.0085556,-0.802468,-0.00311652,-1.29003,0.272266,-0.0507981,-0.00204673,0.00654756,0.0392796,-0.0621466,-0.240293,-0.408038
1413393894955760384,-1.01476,-0.634117,1.68119,0.600855,-0.00699139,-0.799319,-0.00371263,-1.27253,0.307041,-0.0482268,-0.00218909,0.00649199,0.0393024,-0.0549048,-0.241503,-0.415473
1413393895005760512,-1.07862,-0.618421,1.67893,0.605871,-0.00560759,-0.795533,-0.00407733,-1.25221,0.32157,-0.0500986,-0.00218854,0.00649457,0.0393034,-0.0474109,-0.241987,-0.420288
1413393895055760384,-1.13972,-0.601762,1.6762,0.610709,-0.00401959,-0.791835,-0.00387635,-1.21639,0.343682,-0.0600364,-0.0021913,0.00648648,0.0393041,-0.0431818,-0.241565,-0.431007
1413393895105760512,-1.19912,-0.583812,1.67215,0.612426,-0.0020991,-0.790511,-0.00475715,-1.1851,0.372106,-0.0815261,-0.00252695,0.00624568,0.0392565,-0.0439479,-0.237837,-0.444287
1413393895155760384,-1.22059,-0.543408,1.59989,0.638471,0.0136843,-0.769523,-0.00133958,-1.18433,0.365971,-0.0825984,-0.00293588,0.00537214,0.0393695,-0.249595,-0.346649,-1.0674
1413393895205760512,-1.27913,-0.52445,1.59475,0.636176,0.0157043,-0.771382,-0.0017699,-1.14712,0.385429,-0.11174,-0.0029334,0.00537629,0.0393702,-0.251601,-0.342203,-1.07491
1413393895255760384,-1.3359,-0.504817,1.58816,0.636285,0.0162389,-0.771281,-0.00139234,-1.12543,0.387027,-0.137988,-0.00356994,0.00524189,0.039477,-0.263319,-0.328432,-1.08913
1413393895305760512,-1.39194,-0.485451,1.57966,0.638412,0.0176229,-0.769492,-0.000958288,-1.10648,0.382077,-0.204287,-0.00417733,0.00515495,0.0396562,-0.276813,-0.313797,-1.10125
1413393895355760384,-1.4467,-0.466092,1.56855,0.642306,0.0178719,-0.76624,-0.000582206,-1.08627,0.39459,-0.242393,-0.00471501,0.00511027,0.0398915,-0.292046,-0.298455,-1.11364
1413393895405760512,-1.50039,-0.445655,1.55439,0.646489,0.0179964,-0.76271,0.000107505,-1.05261,0.420918,-0.316999,-0.00520115,0.00512215,0.0401554,-0.309153,-0.280891,-1.12698
1413393895455760384,-1.55157,-0.423202,1.53624,0.648831,0.0197523,-0.760675,-0.000915927,-1.01209,0.442078,-0.375465,-0.00562393,0.00520199,0.0404914,-0.32704,-0.25722,-1.1429
1413393895505760512,-1.60175,-0.399726,1.51814,0.652258,0.0196352,-0.75774,-0.00187274,-1.00102,0.438156,-0.404229,-0.00562618,0.00520113,0.0404903,-0.338622,-0.249756,-1.1521
1413393895555760384,-1.64846,-0.371369,1.49498,0.653901,0.0156149,-0.756413,-0.00295388,-0.978918,0.418571,-0.393476,-0.00559036,0.00520161,0.0405058,-0.352738,-0.200882,-1.17422
1413393895605760512,-1.69703,-0.349619,1.47654,0.655891,0.0108905,-0.754768,-0.00367634,-0.973067,0.397899,-0.333186,-0.00559156,0.00520006,0.0405056,-0.362115,-0.192764,-1.18174
1413393895655760384,-1.74445,-0.329713,1.46041,0.657414,0.00682713,-0.753455,-0.00808497,-0.943922,0.391746,-0.289468,-0.00558985,0.00520027,0.0405064,-0.36949,-0.184512,-1.1877
1413393895705760512,-1.79054,-0.310579,1.44703,0.661571,0.00276974,-0.749729,-0.0148966,-0.909744,0.374784,-0.239744,-0.00617833,0.00556772,0.0413464,-0.381341,-0.167961,-1.19939
1413393895755760384,-1.83495,-0.292055,1.43529,0.664782,-0.00443648,-0.746762,-0.0197908,-0.868799,0.363994,-0.208959,-0.0061789,0.00556742,0.0413466,-0.385977,-0.162381,-1.20339
1413393895805760512,-1.87733,-0.273919,1.42526,0.669209,-0.0138232,-0.742516,-0.0252753,-0.834016,0.36423,-0.178248,-0.00617948,0.00556726,0.041347,-0.389814,-0.157304,-1.20683
1413393895855760384,-1.91801,-0.255669,1.41716,0.671013,-0.0242011,-0.740318,-0.032929,-0.772998,0.365477,-0.147976,-0.00667228,0.0055597,0.0423779,-0.398008,-0.142262,-1.21271
1413393895905760512,-1.95456,-0.237664,1.40937,0.672385,-0.0355185,-0.738145,-0.0421725,-0.689032,0.359329,-0.151424,-0.00667301,0.00555955,0.0423784,-0.400957,-0.137171,-1.21525
1413393895955760384,-1.98765,-0.219952,1.40314,0.673173,-0.0504009,-0.73611,-0.0494011,-0.624608,0.357605,-0.103426,-0.00713016,0.00592047,0.0432879,-0.411908,-0.117764,-1.22746
1413393896005760512,-2.01887,-0.202495,1.39969,0.671437,-0.0661908,-0.735643,-0.060166,-0.584058,0.330827,-0.0905032,-0.00582262,0.00849257,0.0452218,-0.459162,-0.0546574,-1.27897
1413393896055760384,-2.04919,-0.186986,1.39825,0.669932,-0.0837482,-0.734229,-0.071306,-0.553004,0.315301,-0.0574574,-0.0025892,0.0111548,0.0490601,-0.485755,0.0287486,-1.34301
1413393896105760512,-2.07538,-0.171632,1.39663,0.669301,-0.100211,-0.731201,-0.0856646,-0.506559,0.302405,0.00276194,-0.00262938,0.0110548,0.0494496,-0.485682,0.0371429,-1.34682
1413393896155760384,-2.09925,-0.157114,1.39612,0.669336,-0.117755,-0.726971,-0.0981593,-0.454135,0.267484,0.00566937,-0.00266112,0.0107057,0.0497695,-0.481553,0.0438997,-1.35373
1413393896205760512,-2.12097,-0.142744,1.39733,0.669489,-0.134734,-0.721955,-0.111409,-0.395329,0.272082,0.0358104,-0.00266444,0.0103699,0.0502531,-0.483947,0.0468407,-1.35915
1413393896255760384,-2.1387,-0.128845,1.39945,0.67219,-0.151931,-0.713594,-0.12594,-0.328273,0.258001,0.0455074,-0.00265904,0.0101368,0.0505966,-0.485688,0.0496117,-1.36289
1413393896305760512,-2.15234,-0.115828,1.40139,0.672524,-0.169348,-0.706525,-0.140904,-0.261308,0.228295,0.0464167,-0.0026021,0.00998382,0.0511567,-0.480259,0.0532444,-1.36522
1413393896355760384,-2.16354,-0.102961,1.40431,0.665498,-0.183642,-0.706085,-0.157579,-0.174729,0.21109,0.0748999,-0.00258697,0.00971155,0.0514351,-0.479665,0.0545888,-1.3704
1413393896405760512,-2.17167,-0.0922399,1.40847,0.661156,-0.197924,-0.703086,-0.171375,-0.10556,0.19498,0.111923,-0.00257968,0.00951579,0.0514711,-0.474066,0.0610269,-1.37789
1413393896455760384,-2.17542,-0.0834623,1.41409,0.656062,-0.217729,-0.699811,-0.180114,-0.0533334,0.142647,0.103408,-0.00256058,0.00948647,0.0515757,-0.473958,0.0666781,-1.38061
1413393896505760512,-2.17606,-0.075683,1.42019,0.64769,-0.237576,-0.699056,-0.188087,0.0194118,0.125533,0.149188,-0.00250411,0.00946314,0.0517116,-0.474356,0.070458,-1.38322
1413393896555760384,-2.17273,-0.0717313,1.42747,0.64354,-0.257095,-0.694827,-0.192286,0.0932429,0.100811,0.134964,-0.00241233,0.00961973,0.0517184,-0.474288,0.0790321,-1.38472
1413393896605760512,-2.16698,-0.06736,1.43519,0.632348,-0.278188,-0.694913,-0.199608,0.120124,0.102246,0.154432,-0.00234118,0.00963394,0.0517083,-0.47174,0.0867189,-1.38603
1413393896655760384,-2.16449,-0.0655952,1.4441,0.621241,-0.297687,-0.694354,-0.208118,0.144501,0.096595,0.179373,-0.00233596,0.00965337,0.051482,-0.469514,0.0980569,-1.39449
1413393896705760512,-2.1571,-0.0597157,1.45419,0.615332,-0.315518,-0.690877,-0.21096,0.181876,0.118764,0.217177,-0.00231841,0.00953612,0.0513673,-0.466859,0.103068,-1.39699
1413393896755760384,-2.14979,-0.0527846,1.46573,0.6094,-0.333602,-0.68705,-0.212847,0.210022,0.135372,0.212692,-0.00232365,0.00938959,0.0512974,-0.462227,0.108575,-1.40129
1413393896805760512,-2.13955,-0.0425734,1.47725,0.604042,-0.350857,-0.682649,-0.214529,0.252026,0.172415,0.238022,-0.00236145,0.00931082,0.0513938,-0.462629,0.108425,-1.4035
1413393896855760384,-2.12355,-0.0298371,1.48823,0.597164,-0.368308,-0.679191,-0.215507,0.29568,0.225501,0.226112,-0.00236061,0.00938019,0.0515857,-0.465635,0.106886,-1.40133
1413393896905760512,-2.11108,-0.0235393,1.50117,0.587562,-0.387069,-0.676653,-0.216997,0.343558,0.254273,0.22039,-0.00235842,0.00941165,0.0514143,-0.459754,0.120421,-1.40509
1413393896955760384,-2.0915,-0.0122593,1.51488,0.573676,-0.404998,-0.675979,-0.22344,0.3818,0.309499,0.238509,-0.00231745,0.0095126,0.0515252,-0.453142,0.131145,-1.40277
1413393897005760512,-2.07318,0.00290545,1.52596,0.55537,-0.418936,-0.679795,-0.232241,0.402004,0.376354,0.219405,-0.00233442,0.00957887,0.0514866,-0.451706,0.137399,-1.40428
1413393897055760384,-2.05706,0.0186866,1.53538,0.533298,-0.428598,-0.686967,-0.244894,0.404993,0.453751,0.19825,-0.00245367,0.00974596,0.0513454,-0.450697,0.146311,-1.4083
1413393897105760512,-2.03666,0.0433045,1.54439,0.512928,-0.431713,-0.69395,-0.262604,0.378304,0.546621,0.186494,-0.00245858,0.00998236,0.0514107,-0.451074,0.149812,-1.40753
1413393897155760384,-2.01761,0.0698412,1.55262,-0.496629,0.430578,0.70003,0.279141,0.343109,0.615882,0.159613,-0.00239159,0.0102338,0.051523,-0.451379,0.155345,-1.40603
1413393897205760512,-2.00157,0.102201,1.56106,-0.484972,0.424463,0.702236,0.302485,0.28583,0.688745,0.16569,-0.00239252,0.0103627,0.0515223,-0.449451,0.157922,-1.40448
1413393897255760384,-1.91161,0.225544,1.54223,-0.477503,0.39668,0.707371,0.338027,0.295305,0.826602,0.153307,-0.000190547,0.0111047,0.0534882,-0.579056,0.0624577,-1.39316
1413393897305760512,-1.89946,0.266456,1.55134,-0.476434,0.378803,0.7049,0.36419,0.202474,0.834006,0.174245,-0.000195312,0.0110869,0.0534796,-0.582536,0.0651818,-1.39088
1413393897355760384,-1.89127,0.308627,1.55983,-0.479273,0.364206,0.698354,0.387237,0.0823504,0.830154,0.177069,-0.000171751,0.0111128,0.0534961,-0.589913,0.0673831,-1.38883
1413393897405760512,-1.89005,0.34951,1.5684,-0.486092,0.357139,0.692843,0.39514,-0.0296441,0.812502,0.164197,-0.000174658,0.0111051,0.0534916,-0.594729,0.069679,-1.38637
1413393897455760384,-1.894,0.389778,1.57614,-0.4967,0.355988,0.686048,0.394841,-0.134515,0.78369,0.158309,-0.00016632,0.0111144,0.0534974,-0.601252,0.0716899,-1.38379
1413393897505760512,-1.90411,0.427128,1.58377,0.50644,-0.35572,-0.680814,-0.391757,-0.232984,0.734482,0.151671,-0.000105379,0.0112076,0.0533989,-0.60634,0.0734564,-1.3814
1413393897555760384,-1.91737,0.462399,1.59126,0.514183,-0.356496,-0.676713,-0.388054,-0.301808,0.694716,0.138377,-7.41297e-05,0.0112,0.0533875,-0.612367,0.0759143,-1.3789
1413393897605760512,-1.93957,0.494126,1.59839,0.520133,-0.359319,-0.674623,-0.381098,-0.360226,0.63915,0.138918,-0.000100693,0.0116133,0.0533447,-0.618354,0.0779665,-1.3843
1413393897655760384,-1.96374,0.474509,1.60537,0.517125,-0.375902,-0.667851,-0.381122,-0.409212,0.600403,0.147017,0.00111811,0.0128858,0.0522465,-0.602347,0.120116,-1.39674
1413393897705760512,-1.97222,0.548633,1.61183,0.525498,-0.359627,-0.678163,-0.366898,-0.478133,0.555968,0.174816,-0.0006819,0.0131333,0.0527338,-0.608463,0.093364,-1.39171
1413393897755760384,-1.99763,0.573963,1.61944,0.526323,-0.358097,-0.67996,-0.363874,-0.517424,0.528509,0.1744,-0.000824427,0.0130607,0.0527398,-0.615526,0.0986574,-1.39188
1413393897805760512,-2.02557,0.61786,1.63073,0.526446,-0.355906,-0.681529,-0.362909,-0.582095,0.486509,0.190595,-0.00091744,0.013059,0.052753,-0.623368,0.103025,-1.39032
1413393897855760384,-2.07684,0.603068,1.64266,0.518913,-0.369909,-0.674217,-0.373265,-0.60995,0.495313,0.219797,0.00077537,0.0129699,0.0522497,-0.630335,0.131776,-1.38927
1413393897905760512,-2.10016,0.655616,1.65268,0.521337,-0.359322,-0.680775,-0.368294,-0.66749,0.444647,0.248757,-0.000613392,0.0131459,0.0525676,-0.636744,0.122768,-1.37047
1413393897955760384,-2.13916,0.672958,1.6646,0.516679,-0.363866,-0.677877,-0.375669,-0.720752,0.424376,0.255114,-0.000319474,0.0130964,0.0524889,-0.643995,0.130766,-1.37121
1413393898005760512,-2.17127,0.697735,1.67768,0.5132,-0.363921,-0.676753,-0.38235,-0.76871,0.397736,0.267564,-0.000596915,0.0131627,0.0525523,-0.652219,0.131097,-1.36304
1413393898055760384,-2.20993,0.712902,1.69108,0.507908,-0.369066,-0.671132,-0.39421,-0.828882,0.378296,0.301683,-0.000443108,0.0131256,0.0525163,-0.659406,0.137026,-1.36215
1413393898105760512,-2.25367,0.733585,1.70663,0.507957,-0.370229,-0.663619,-0.40561,-0.902726,0.310851,0.328992,-0.000686257,0.0131839,0.052511,-0.667898,0.146887,-1.34984
1413393898155760384,-2.29681,0.744543,1.72427,0.512658,-0.375424,-0.648842,-0.41862,-0.95756,0.255791,0.361364,-0.000603282,0.0131661,0.0525077,-0.673323,0.148625,-1.34551
1413393898205760512,-2.34398,0.756044,1.74697,0.520364,-0.380104,-0.633284,-0.428595,-1.01347,0.176134,0.339602,-0.000283171,0.0131283,0.052592,-0.606713,0.144144,-1.31643
1413393898255760384,-2.38803,0.761784,1.75804,0.529828,-0.382687,-0.617505,-0.437631,-1.10915,0.0743835,0.383019,0.00209447,0.0141918,0.0542003,-0.651158,0.191047,-1.27572
1413393898305760512,-2.45028,0.760876,1.77193,0.541554,-0.385256,-0.602391,-0.442065,-1.1715,-0.0254787,0.406877,0.00203228,0.0144936,0.0542156,-0.661061,0.204355,-1.23628
1413393898355760384,-2.52181,0.75419,1.79072,0.554621,-0.391354,-0.58496,-0.443913,-1.20289,-0.139576,0.425629,0.00191325,0.0147035,0.0540669,-0.664653,0.210561,-1.1907
1413393898405760512,-2.58409,0.746408,1.81986,0.567888,-0.394693,-0.567016,-0.447453,-1.22801,-0.272289,0.455722,0.00192067,0.0148242,0.0541197,-0.668704,0.188564,-1.18181
1413393898455760384,-2.65144,0.728577,1.84313,0.582544,-0.397989,-0.549237,-0.447868,-1.22053,-0.427649,0.472344,0.00192604,0.0149271,0.0541465,-0.671563,0.175207,-1.16982
1413393898505760512,-2.68485,0.703476,1.86755,0.590462,-0.408675,-0.532528,-0.448054,-1.18467,-0.553336,0.430463,0.0024241,0.0148554,0.0540435,-0.670785,0.174288,-1.17227
1413393898555760384,-2.76193,0.672892,1.89142,0.593175,-0.417953,-0.538667,-0.428131,-1.16865,-0.717879,0.360517,0.00159279,0.015281,0.05419,-0.670207,0.144646,-1.11658
1413393898605760512,-2.81859,0.632916,1.91059,0.578167,-0.440182,-0.54541,-0.417721,-1.12219,-0.84342,0.334424,0.00207722,0.0152282,0.0540489,-0.67063,0.151888,-1.12132
1413393898655760384,-2.87892,0.586604,1.92713,0.559624,-0.458686,-0.562022,-0.400699,-1.07515,-0.9749,0.329195,0.00208841,0.0152644,0.0540572,-0.672993,0.154177,-1.12069
1413393898705760512,-2.92982,0.53588,1.94362,0.549002,-0.485653,-0.565139,-0.378624,-1.0301,-1.04948,0.28945,0.0021199,0.0152586,0.0540451,-0.670768,0.152282,-1.12417
1413393898755760384,-2.96097,0.483633,1.95929,0.525338,-0.506869,-0.582431,-0.3576,-0.962782,-1.05109,0.270372,0.00256219,0.0152508,0.0532623,-0.659584,0.163614,-1.11365
1413393898805760512,-3.0073,0.43126,1.97075,-0.499261,0.525485,0.601246,0.336313,-0.905432,-1.01925,0.254876,0.00273361,0.0162748,0.0524615,-0.629711,0.152125,-1.12434
1413393898855760384,-3.05286,0.382113,1.98687,-0.468269,0.539667,0.621347,0.321577,-0.872566,-0.941093,0.325522,0.00521424,0.0166565,0.0550459,-0.643655,0.174982,-1.11918
1413393898905760512,-3.09865,0.336379,2.00477,-0.442224,0.551306,0.636021,0.309803,-0.850807,-0.827475,0.397372,0.0057694,0.01709,0.0556455,-0.646275,0.189189,-1.118
1413393898955760384,-3.141,0.298266,2.02592,-0.416816,0.561592,0.64776,0.302134,-0.847906,-0.673929,0.458957,0.0057945,0.0171082,0.055654,-0.64502,0.193425,-1.11917
1413393899005760512,-3.18191,0.268527,2.04998,-0.392853,0.568501,0.658615,0.297824,-0.835093,-0.506751,0.500157,0.0057477,0.0170791,0.0556282,-0.643795,0.196139,-1.11986
1413393899055760384,-3.22475,0.249019,2.07828,-0.37376,0.569769,0.665783,0.303971,-0.851143,-0.265559,0.617943,0.00578477,0.0171013,0.0556447,-0.643432,0.199815,-1.11974
1413393899105760512,-3.26809,0.240509,2.11158,-0.361964,0.562156,0.669788,0.323027,-0.907138,-0.0629711,0.717092,0.0057619,0.0170947,0.055639,-0.64258,0.202612,-1.11924
1413393899155760384,-3.31529,0.242495,2.15027,-0.364725,0.547678,0.666102,0.351188,-0.971602,0.120961,0.80795,0.00582158,0.0170981,0.0556364,-0.642079,0.205288,-1.11956
1413393899205760512,-3.36611,0.252201,2.19328,-0.380608,0.527645,0.654778,0.3847,-1.06361,0.246247,0.896428,0.00581837,0.0170953,0.0556335,-0.641426,0.208247,-1.11921
1413393899255760384,-3.42152,0.266211,2.23846,-0.406035,0.503303,0.638453,0.417371,-1.15452,0.305241,0.919889,0.00582173,0.0170976,0.0556353,-0.640871,0.211174,-1.11887
1413393899305760512,-3.4812,0.281815,2.28511,-0.437218,0.478017,0.616687,0.447255,-1.22776,0.313371,0.926917,0.0058214,0.017097,0.0556344,-0.640288,0.213916,-1.11858
1413393899355760384,-3.53952,0.297141,2.32902,-0.47007,0.455819,0.591975,0.469924,-1.28884,0.264605,0.923381,0.00593469,0.0165141,0.0540134,-0.62872,0.211214,-1.12685
1413393899405760512,-3.58852,0.309842,2.36909,0.510078,-0.439915,-0.559702,-0.482729,-1.24073,0.162651,0.906132,0.00343713,0.0137203,0.0501907,-0.598914,0.196064,-1.15193
1413393899455760384,-3.63508,0.317007,2.39446,0.539567,-0.425235,-0.53641,-0.490211,-1.21106,0.0170499,0.880526,0.00193404,0.0132919,0.0489175,-0.535851,0.157102,-1.16309
1413393899505760512,-3.69601,0.313871,2.43821,0.565757,-0.411527,-0.514652,-0.495679,-1.22457,-0.142983,0.867424,0.00192168,0.0132908,0.0489154,-0.53165,0.156403,-1.16245
1413393899555760384,-3.7562,0.302153,2.48079,0.587901,-0.404944,-0.495317,-0.495028,-1.21924,-0.326948,0.846196,0.00190498,0.0132917,0.0489137,-0.526829,0.155457,-1.16194
1413393899605760512,-3.81628,0.280954,2.52254,0.604038,-0.405803,-0.480949,-0.48903,-1.17684,-0.519151,0.811055,0.00190323,0.0132911,0.0489113,-0.522967,0.154679,-1.16109
1413393899655760384,-3.874,0.250309,2.56123,0.609617,-0.414607,-0.476083,-0.479388,-1.14409,-0.712425,0.748047,0.00189633,0.0132917,0.0489115,-0.51889,0.153506,-1.16029
1413393899705760512,-3.92924,0.210095,2.59752,0.608827,-0.430171,-0.479992,-0.462482,-1.08835,-0.889228,0.702831,0.00189043,0.0132906,0.048912,-0.515172,0.152385,-1.15985
1413393899755760384,-3.98209,0.161704,2.63097,0.603203,-0.448023,-0.493519,-0.438018,-1.00794,-1.04488,0.661979,0.0018724,0.0132914,0.0489157,-0.511607,0.150259,-1.15967
1413393899805760512,-4.03087,0.106471,2.66086,0.592411,-0.468207,-0.509981,-0.412009,-0.934147,-1.17147,0.631906,0.00195207,0.0134528,0.0489175,-0.502917,0.146621,-1.16037
1413393899855760384,-4.07529,0.0455418,2.69077,0.57784,-0.491209,-0.528442,-0.381528,-0.855891,-1.25688,0.568164,0.00194702,0.0134525,0.0489139,-0.498824,0.144758,-1.16005
1413393899905760512,-4.13991,-0.0294133,2.84052,0.563398,-0.516745,-0.542852,-0.347662,-0.769564,-1.33469,0.746268,0.000247948,0.00868827,0.0466286,-0.70803,0.226296,-1.10918
1413393899955760384,-4.17337,-0.0971331,2.8667,0.538115,-0.539852,-0.564743,-0.316318,-0.672782,-1.33512,0.721964,0.00047063,0.00971045,0.0469838,-0.68951,0.215868,-1.1093
1413393900005760512,-4.19799,-0.160073,2.88984,0.513796,-0.559146,-0.582064,-0.29081,-0.57131,-1.27348,0.726404,0.000383022,0.010051,0.0471255,-0.669328,0.20453,-1.11216
1413393900055760384,-4.20739,-0.237061,2.86152,-0.4884,0.575914,0.596368,0.272275,-0.481741,-1.18815,0.63747,0.000859195,0.0135606,0.0473502,-0.557819,0.167984,-1.14233
1413393900105760512,-4.21818,-0.292404,2.87133,-0.471384,0.586502,0.604858,0.260689,-0.389539,-1.04923,0.609562,0.000322783,0.0135871,0.0470106,-0.528447,0.15535,-1.15747
1413393900155760384,-4.22713,-0.335929,2.88004,-0.455276,0.592157,0.612557,0.258549,-0.301228,-0.878546,0.578668,0.000252895,0.0136482,0.0473616,-0.497311,0.141874,-1.17006
1413393900205760512,-4.23164,-0.373043,2.89769,-0.436844,0.598843,0.617837,0.262357,-0.237355,-0.707262,0.552319,0.00043113,0.0138921,0.0477169,-0.481181,0.136319,-1.17501
1413393900255760384,-4.24192,-0.403679,2.92571,-0.41776,0.599933,0.624622,0.274598,-0.181696,-0.519485,0.574072,0.000424406,0.0138932,0.0477128,-0.478331,0.134404,-1.17519
1413393900305760512,-4.251,-0.42487,2.95418,-0.404794,0.601688,0.625357,0.288171,-0.153072,-0.339789,0.561792,0.000445918,0.0138917,0.0477085,-0.475738,0.132396,-1.17591
1413393900355760384,-4.25075,-0.44123,2.98178,-0.400202,0.592296,0.628075,0.307483,-0.137612,-0.170166,0.553534,0.000369206,0.0139039,0.047731,-0.473325,0.130106,-1.17587
1413393900405760512,-4.25729,-0.445467,3.00983,-0.404279,0.580242,0.624541,0.3314,-0.136233,-0.0123293,0.547924,0.000365584,0.0139042,0.0477325,-0.471129,0.128323,-1.17655
1413393900455760384,-4.24852,-0.440989,3.02126,-0.412342,0.565989,0.617992,0.357374,-0.145813,0.0904878,0.500553,0.00041678,0.0139827,0.0483201,-0.446878,0.122916,-1.19043
1413393900505760512,-4.21861,-0.4334,3.00231,-0.425906,0.549367,0.607373,0.384575,-0.159431,0.167763,0.401194,0.00142853,0.0134076,0.049709,-0.364953,0.118053,-1.24319
1413393900555760384,-4.19093,-0.415414,2.98208,-0.441636,0.531822,0.594364,0.410919,-0.177851,0.215867,0.305673,0.00286034,0.0126365,0.0512016,-0.293241,0.132797,-1.27329
1413393900605760512,-4.19721,-0.401526,2.98621,-0.463892,0.51406,0.575854,0.434671,-0.194322,0.222278,0.233818,0.00285601,0.0124084,0.051424,-0.272654,0.133576,-1.28078
1413393900655760384,-4.19339,-0.388581,2.98962,-0.485844,0.496865,0.556951,0.454846,-0.190124,0.196225,0.16648,0.0029954,0.0121695,0.0520021,-0.25103,0.138394,-1.28562
1413393900705760512,-4.18857,-0.380383,2.99295,0.507747,-0.481516,-0.537402,-0.470674,-0.176144,0.136796,0.0688433,0.00297187,0.0121522,0.0524465,-0.24522,0.140319,-1.28799
1413393900755760384,-4.17796,-0.377134,2.98781,0.525777,-0.469777,-0.52156,-0.480461,-0.160528,0.0456441,0.0131623,0.00291135,0.0122453,0.0529429,-0.245302,0.139978,-1.29177
1413393900805760512,-4.16604,-0.379538,2.98407,0.538976,-0.467104,-0.508957,-0.481955,-0.12401,-0.076482,-0.00104159,0.00283173,0.0123561,0.0533716,-0.243074,0.140291,-1.29599
1413393900855760384,-4.09512,-0.424482,2.97277,0.55539,-0.462037,-0.509522,-0.467388,-0.0802804,-0.21514,-0.0346052,0.00148307,0.012476,0.0540338,-0.242698,0.134474,-1.30194
1413393900905760512,-4.08497,-0.440885,2.98726,0.569913,-0.459614,-0.50888,-0.452763,-0.14071,-0.300169,-0.0280913,0.000610323,0.0120672,0.0543316,-0.265601,0.148879,-1.42157
1413393900955760384,-4.09527,-0.463954,2.97831,0.564005,-0.474716,-0.516014,-0.436203,-0.097366,-0.423556,-0.0185014,0.000780184,0.0121359,0.0543985,-0.265202,0.148006,-1.42121
1413393901005760512,-4.0908,-0.490582,2.96644,0.555369,-0.490548,-0.527359,-0.415716,-0.0355548,-0.51236,-0.022356,0.000752078,0.0123263,0.0545671,-0.265655,0.147103,-1.42574
1413393901055760384,-4.0851,-0.516245,2.96025,0.543593,-0.50741,-0.540752,-0.393228,0.0312975,-0.573936,-0.00548424,0.000725552,0.0123271,0.0548346,-0.266761,0.143131,-1.43108
1413393901105760512,-4.07874,-0.543617,2.95741,0.52261,-0.521855,-0.559636,-0.375969,0.113081,-0.590073,-0.00580731,0.000714088,0.0123161,0.0550307,-0.266408,0.14133,-1.43622
1413393901155760384,-4.07043,-0.572183,2.9541,-0.495501,0.536135,0.581081,0.359698,0.162994,-0.568165,0.0084228,0.000713044,0.0123154,0.05513,-0.265914,0.141406,-1.44118
1413393901205760512,-4.06111,-0.599434,2.95465,-0.465714,0.545456,0.602654,0.34985,0.195296,-0.513325,0.042566,0.000698054,0.0123227,0.0551411,-0.263565,0.143669,-1.44556
1413393901255760384,-4.04926,-0.62427,2.95973,-0.443305,0.554544,0.615173,0.342816,0.220701,-0.422067,0.0736176,0.000687542,0.0124041,0.0552318,-0.258793,0.14775,-1.44917
1413393901305760512,-3.91042,-0.650235,2.97628,-0.445029,0.552047,0.612262,0.349755,0.345814,-0.30066,0.106691,0.00147814,0.0122218,0.0567589,-0.256997,0.115052,-1.43662
1413393901355760384,-3.87034,-0.6779,2.97427,-0.456435,0.547095,0.604287,0.35664,0.353975,-0.213451,0.128464,0.00165847,0.0123451,0.0567359,-0.255679,0.111038,-1.4325
1413393901405760512,-3.84264,-0.695158,2.98052,-0.442189,0.550956,0.612302,0.354969,0.367778,-0.129962,0.144962,0.0018346,0.0124302,0.056717,-0.250954,0.115715,-1.43185
1413393901455760384,-3.81992,-0.703611,2.98682,-0.431056,0.556308,0.617307,0.351631,0.37382,-0.0282947,0.15442,0.00208856,0.0124824,0.0567077,-0.247922,0.119944,-1.43182
1413393901505760512,-3.80444,-0.704925,2.99726,-0.42112,0.559207,0.621918,0.350945,0.356357,0.0861839,0.165929,0.00228356,0.0125372,0.0566661,-0.24397,0.127602,-1.43318
1413393901555760384,-3.78568,-0.700805,2.9979,-0.4145,0.560561,0.624513,0.352057,0.344527,0.207851,0.182151,0.00249458,0.0125404,0.0566459,-0.249447,0.127843,-1.43611
1413393901605760512,-3.76731,-0.690265,3.00075,-0.406158,0.555859,0.629557,0.360159,0.329438,0.333156,0.225572,0.00271812,0.012593,0.0566776,-0.254114,0.132492,-1.43816
1413393901655760384,-3.75201,-0.677893,2.99629,-0.406195,0.548973,0.628825,0.37177,0.286214,0.456031,0.272932,0.00289227,0.0127668,0.0565847,-0.266092,0.136637,-1.44176
1413393901705760512,-3.73328,-0.655351,2.99678,-0.409198,0.534164,0.626944,0.392642,0.24508,0.551157,0.28543,0.00315632,0.0128916,0.0565784,-0.278953,0.142442,-1.44094
1413393901755760384,-3.72812,-0.626291,3.01189,-0.41594,0.51933,0.621559,0.413467,0.186022,0.621606,0.296716,0.00330377,0.01285,0.056521,-0.281049,0.149466,-1.4429
1413393901805760512,-3.73144,-0.595654,3.02307,-0.42809,0.506055,0.612481,0.430714,0.110259,0.665909,0.285698,0.00331101,0.0128468,0.0563943,-0.286632,0.157088,-1.44533
1413393901855760384,-3.73595,-0.562892,3.03255,-0.439065,0.497145,0.603913,0.441993,0.063683,0.683539,0.24172,0.00333096,0.0128226,0.0562993,-0.293506,0.165579,-1.44669
1413393901905760512,-3.74424,-0.530939,3.04197,-0.445632,0.496482,0.598033,0.444155,-0.000480518,0.698528,0.195204,0.00325073,0.0128106,0.056189,-0.299325,0.174601,-1.4501
1413393901955760384,-3.76305,-0.508006,3.07645,-0.452917,0.501335,0.586787,0.44633,-0.0479854,0.703641,0.182827,0.00332681,0.0124717,0.0560055,-0.320051,0.189968,-1.51223
1413393902005760512,-3.65121,-0.489209,3.07302,-0.454556,0.508715,0.573524,0.453495,-0.0644038,0.699275,0.201118,0.0040176,0.0119489,0.0559105,-0.355068,0.207227,-1.62774
1413393902055760384,-3.72278,-0.464811,3.06501,-0.47188,0.490334,0.59098,0.433179,-0.153855,0.699175,0.204126,0.00121747,0.0122383,0.0563215,-0.359535,0.214828,-1.60329
1413393902105760512,-3.72086,-0.402725,3.06871,-0.465913,0.498955,0.584167,0.438997,-0.163929,0.704648,0.198875,0.001981,0.012046,0.0563022,-0.359767,0.200378,-1.60867
1413393902155760384,-3.72022,-0.374151,3.0586,-0.465931,0.498074,0.584512,0.439517,-0.20781,0.698281,0.213244,0.00188908,0.0121157,0.0563365,-0.366199,0.201447,-1.6022
1413393902205760512,-3.73257,-0.336084,3.07427,-0.465543,0.49809,0.584664,0.439709,-0.241509,0.703363,0.214383,0.00183534,0.0121131,0.056339,-0.37459,0.215852,-1.60895
1413393902255760384,-3.76207,-0.300504,3.11544,-0.461702,0.508318,0.569742,0.451484,-0.257882,0.713724,0.227471,0.00321569,0.0115524,0.0560677,-0.401343,0.281275,-1.72012
1413393902305760512,-3.77866,-0.264033,3.10116,-0.462993,0.506872,0.566071,0.456379,-0.300593,0.713112,0.233606,0.00344022,0.0112287,0.0562097,-0.433162,0.299298,-1.81986
1413393902355760384,-3.79066,-0.226313,3.08491,-0.462788,0.504825,0.566229,0.458655,-0.341152,0.718154,0.202101,0.00333028,0.0112601,0.0563894,-0.445593,0.27481,-1.84384
1413393902405760512,-3.80693,-0.189078,3.08668,-0.463988,0.503399,0.564967,0.460562,-0.389468,0.726631,0.168338,0.00321748,0.0112503,0.0565121,-0.449731,0.271989,-1.85217
1413393902455760384,-3.82606,-0.154845,3.09493,-0.465604,0.501316,0.563645,0.462817,-0.448481,0.699449,0.141939,0.00308117,0.0112646,0.0564973,-0.453826,0.282224,-1.8598
1413393902505760512,-3.84902,-0.118147,3.09292,-0.467387,0.499013,0.561923,0.465594,-0.498174,0.689407,0.127657,0.00303073,0.011232,0.0566562,-0.450853,0.275361,-1.85786
1413393902555760384,-3.87548,-0.083457,3.09528,-0.467531,0.49892,0.561285,0.466317,-0.570726,0.673939,0.120309,0.00298209,0.011322,0.0566904,-0.455251,0.277854,-1.85661
1413393902605760512,-3.90465,-0.048357,3.08903,-0.466683,0.499562,0.561537,0.466177,-0.64076,0.646891,0.18034,0.00295343,0.0112707,0.0568225,-0.450334,0.271436,-1.84847
1413393902655760384,-3.93862,-0.0159855,3.0973,-0.465426,0.501495,0.561612,0.465267,-0.721063,0.641534,0.232763,0.00292948,0.0112902,0.0568899,-0.449244,0.273197,-1.84327
1413393902705760512,-3.97586,0.0175682,3.10029,-0.463537,0.502883,0.561546,0.465734,-0.788441,0.625696,0.31329,0.00284055,0.0113611,0.0569553,-0.45018,0.267107,-1.84166
1413393902755760384,-4.05474,0.130943,3.06758,-0.457428,0.508275,0.561984,0.465392,-0.820073,0.637969,0.373843,0.00309261,0.0118012,0.0569958,-0.443473,0.233406,-1.76248
1413393902805760512,-4.03484,0.107991,3.15352,-0.465809,0.512032,0.566535,0.447083,-0.753628,0.646949,0.398652,0.00188394,0.0119884,0.0566612,-0.414976,0.368526,-1.66568
1413393902855760384,-4.07873,0.151042,3.17373,-0.470613,0.520044,0.566631,0.432442,-0.794565,0.664325,0.423006,0.00166207,0.0121509,0.0563939,-0.403339,0.453443,-1.60683
1413393902905760512,-4.11159,0.186087,3.197,-0.474484,0.52917,0.568278,0.414613,-0.786233,0.672083,0.447785,0.00132668,0.0122912,0.0563224,-0.392504,0.500659,-1.55965
1413393902955760384,-4.14232,0.218162,3.22686,-0.477396,0.53701,0.570263,0.398137,-0.763119,0.691148,0.435662,0.00107776,0.012411,0.0562823,-0.385794,0.544791,-1.52998
1413393903005760512,-4.17495,0.249944,3.25304,-0.480709,0.542257,0.571918,0.384428,-0.742777,0.711931,0.442463,0.000718381,0.0124848,0.0563772,-0.381717,0.554862,-1.5174
1413393903055760384,-4.20773,0.285315,3.264,-0.483873,0.546342,0.572169,0.374164,-0.70396,0.740079,0.468411,0.000493394,0.0126528,0.0564184,-0.379279,0.576798,-1.49553
1413393903105760512,-4.23688,0.318453,3.28008,-0.484082,0.545771,0.573984,0.371942,-0.671945,0.76924,0.490522,0.000291254,0.0129101,0.0565306,-0.368813,0.573058,-1.4482
1413393903155760384,-4.27655,0.368894,3.34898,-0.489394,0.546324,0.560103,0.385108,-0.626753,0.790777,0.510884,0.00108553,0.0122087,0.0563562,-0.394547,0.668898,-1.58818
1413393903205760512,-4.30149,0.403786,3.33057,-0.487563,0.538585,0.568201,0.386465,-0.601399,0.811709,0.502466,0.000400879,0.0130104,0.0565619,-0.370159,0.59704,-1.45248
1413393903255760384,-4.33371,0.446258,3.35963,-0.488445,0.535716,0.564897,0.394108,-0.578532,0.834411,0.479655,0.000378327,0.0129772,0.0564145,-0.365468,0.617535,-1.44745
1413393903305760512,-4.36151,0.488743,3.38153,-0.487832,0.533358,0.561669,0.402588,-0.546677,0.843217,0.466569,0.000270961,0.0130059,0.0564838,-0.36081,0.61775,-1.44394
1413393903355760384,-4.3877,0.531979,3.40511,-0.48462,0.534808,0.557963,0.409635,-0.522703,0.864533,0.413414,0.00020503,0.0130941,0.0565417,-0.355401,0.638484,-1.43356
1413393903405760512,-4.41185,0.57566,3.42608,-0.481646,0.539817,0.551116,0.415796,-0.504555,0.884347,0.338546,0.000185233,0.0130562,0.0564805,-0.338547,0.66626,-1.41474
1413393903455760384,-4.43496,0.620922,3.4456,-0.478536,0.548395,0.542142,0.419938,-0.49594,0.901713,0.23604,0.000254378,0.013124,0.0564374,-0.328284,0.711162,-1.38428
1413393903505760512,-4.45952,0.666578,3.45388,-0.475906,0.557641,0.531482,0.424353,-0.489566,0.920915,0.116452,0.000176961,0.0131742,0.0565012,-0.324084,0.713234,-1.36664
1413393903555760384,-4.48286,0.712397,3.45693,-0.474027,0.567592,0.518856,0.428865,-0.490343,0.928392,0.0294874,0.00013172,0.0132331,0.0565353,-0.316352,0.728845,-1.33865
1413393903605760512,-4.50695,0.758669,3.46567,-0.475898,0.576372,0.502858,0.434109,-0.479879,0.926554,0.0232708,0.00012384,0.0133185,0.0565861,-0.310071,0.749968,-1.31365
1413393903655760384,-4.529,0.803379,3.47585,-0.478183,0.584595,0.486371,0.439355,-0.454315,0.893159,0.0314742,0.000123454,0.0134429,0.0565355,-0.304291,0.782563,-1.28215
1413393903705760512,-4.55058,0.846134,3.48468,-0.479258,0.59274,0.471615,0.443339,-0.426811,0.876705,0.0293326,7.70091e-05,0.01348,0.056568,-0.299629,0.80179,-1.26682
1413393903755760384,-4.56963,0.888224,3.49259,-0.47899,0.60074,0.458304,0.446808,-0.389412,0.829114,0.0418614,6.66654e-05,0.0135468,0.0565339,-0.289128,0.826153,-1.23081
1413393903805760512,-4.58899,0.927483,3.49355,-0.47744,0.608301,0.448793,0.44789,-0.353598,0.789919,0.0478343,-3.61224e-05,0.0137499,0.056699,-0.29681,0.810975,-1.21052
1413393903855760384,-4.60546,0.966197,3.49737,-0.476074,0.617592,0.44031,0.445041,-0.31336,0.74907,0.0627096,-9.18391e-05,0.0138667,0.0566993,-0.293338,0.820866,-1.17639
1413393903905760512,-4.62014,1.00306,3.50013,-0.475747,0.625831,0.432722,0.441307,-0.264846,0.711582,0.0775975,-0.000157983,0.0139835,0.0568124,-0.292769,0.826689,-1.15992
1413393903955760384,-4.63157,1.03795,3.50702,-0.475404,0.633172,0.426013,0.437717,-0.196693,0.666379,0.102679,-0.000175834,0.0141258,0.0568248,-0.287909,0.84181,-1.13224
1413393904005760512,-4.6398,1.0709,3.51139,-0.474318,0.638199,0.421447,0.436013,-0.132712,0.633353,0.127954,-0.000190688,0.0143101,0.0569334,-0.28747,0.844241,-1.10333
1413393904055760384,-4.64497,1.10262,3.51671,-0.471445,0.642098,0.419952,0.434844,-0.066041,0.608128,0.0976332,-0.000226458,0.0144726,0.0569987,-0.282194,0.847894,-1.07406
1413393904105760512,-4.64676,1.13309,3.52096,-0.467657,0.643683,0.419485,0.437038,-0.000156732,0.582394,0.0535812,-0.000249144,0.0146158,0.0570053,-0.274431,0.858217,-1.04363
1413393904155760384,-4.64681,1.16317,3.52421,-0.461084,0.644824,0.422855,0.439087,0.0416618,0.560658,-0.00696021,-0.000266021,0.0147442,0.0570663,-0.265026,0.862264,-1.01563
1413393904205760512,-4.64452,1.19096,3.52468,-0.454003,0.645765,0.426839,0.441222,0.0997136,0.531328,-0.0336176,-0.000300225,0.0148508,0.0570909,-0.255291,0.861636,-0.979776
1413393904255760384,-4.6386,1.21736,3.52216,-0.447625,0.646224,0.430771,0.44324,0.158767,0.515547,-0.00868252,-0.00024233,0.014983,0.0571556,-0.253484,0.87459,-0.963295
1413393904305760512,-4.63318,1.24314,3.52577,-0.442431,0.644763,0.433964,0.447448,0.211485,0.470062,0.0842745,-0.000258221,0.0151401,0.0572577,-0.252537,0.855297,-0.9428
1413393904355760384,-4.62246,1.26728,3.53084,-0.439948,0.643618,0.435721,0.449832,0.27597,0.452799,0.169,-0.000273994,0.0152911,0.0573684,-0.247255,0.853512,-0.914444
1413393904405760512,-4.61328,1.28866,3.54428,-0.436709,0.64278,0.437336,0.452611,0.334113,0.392896,0.238453,-0.000295173,0.0154748,0.0575087,-0.245887,0.820872,-0.893025
1413393904455760384,-4.59557,1.30866,3.55995,-0.434471,0.644273,0.435813,0.454108,0.400583,0.385873,0.359607,-0.000301414,0.0156174,0.0576058,-0.241684,0.834997,-0.869959
1413393904505760512,-4.57422,1.32701,3.58317,-0.430699,0.646264,0.434558,0.45607,0.453997,0.368249,0.435578,-0.000296046,0.0157124,0.0576241,-0.232576,0.851417,-0.840425
1413393904555760384,-4.54717,1.34332,3.60223,-0.424018,0.648908,0.432945,0.460093,0.510436,0.317521,0.447404,-0.000279188,0.0157635,0.0576168,-0.218871,0.873621,-0.808808
1413393904605760512,-4.52173,1.36109,3.62705,-0.408759,0.653824,0.436183,0.463869,0.551947,0.308941,0.418883,-0.000228152,0.0158194,0.0575967,-0.206726,0.892521,-0.776492
1413393904655760384,-4.49154,1.37601,3.6456,-0.389036,0.661156,0.440773,0.466093,0.561749,0.314875,0.351897,-0.000173231,0.0158814,0.0576457,-0.195336,0.920945,-0.752182
1413393904705760512,-4.46393,1.39374,3.65442,-0.369389,0.66998,0.443769,0.466634,0.556729,0.335438,0.282246,-0.000159059,0.016002,0.0577338,-0.187716,0.91381,-0.718106
1413393904755760384,-4.43767,1.41235,3.66243,-0.349715,0.679498,0.444849,0.467003,0.54804,0.360683,0.237965,-0.000130844,0.0160353,0.0577586,-0.178974,0.907857,-0.692942
1413393904805760512,-4.41662,1.4355,3.66685,-0.332581,0.687778,0.442922,0.469224,0.520407,0.412382,0.204052,-4.82624e-05,0.0161372,0.0578833,-0.178415,0.892327,-0.68206
1413393904855760384,-4.41613,1.47583,3.68074,-0.315321,0.69614,0.436366,0.474917,0.49505,0.458821,0.189259,0.000274614,0.0162769,0.0580549,-0.175583,0.840775,-0.666492
1413393904905760512,-4.42218,1.50542,3.69384,-0.299134,0.701893,0.424528,0.487484,0.490727,0.514277,0.187154,0.000912375,0.0164851,0.0584157,-0.195412,0.742062,-0.699356
1413393904955760384,-4.41724,1.53209,3.6978,-0.288884,0.700547,0.41205,0.505958,0.491622,0.563491,0.184533,0.00130104,0.0166643,0.059019,-0.223963,0.632122,-0.777662
1413393905005760512,-4.40238,1.56551,3.70079,-0.284783,0.698765,0.397603,0.522052,0.47756,0.617276,0.150778,0.00141473,0.0167511,0.059324,-0.232763,0.591299,-0.803715
1413393905055760384,-4.38419,1.59965,3.69358,-0.280934,0.696734,0.383783,0.53698,0.446962,0.663696,0.114187,0.00144647,0.0168066,0.0596128,-0.241738,0.570144,-0.831839
1413393905105760512,-4.3685,1.63489,3.68726,-0.277232,0.696245,0.36914,0.549655,0.419355,0.670601,0.0429192,0.00149817,0.016825,0.0598452,-0.250175,0.555093,-0.864246
1413393905155760384,-4.352,1.6697,3.67556,-0.273512,0.696604,0.354972,0.560293,0.387105,0.686403,-0.0398521,0.00151085,0.0168621,0.0601045,-0.258126,0.541623,-0.888093
1413393905205760512,-4.33611,1.70372,3.65262,-0.271691,0.698623,0.339765,0.56804,0.353954,0.706257,-0.0918298,0.00149832,0.0168882,0.0603616,-0.267576,0.531884,-0.918469
1413393905255760384,-4.32565,1.73791,3.63271,-0.270742,0.69948,0.325458,0.575764,0.321998,0.709919,-0.122516,0.00142451,0.0168928,0.0607776,-0.285377,0.518217,-0.99002
1413393905305760512,-4.31125,1.77242,3.62097,-0.269874,0.703989,0.310013,0.579188,0.288587,0.711689,-0.130619,0.00135157,0.0169205,0.0609575,-0.284623,0.529638,-1.00374
1413393905355760384,-4.29914,1.80554,3.60673,-0.267487,0.70826,0.295989,0.582417,0.251458,0.709114,-0.112975,0.0013118,0.0169299,0.0611751,-0.288259,0.537679,-1.02467
1413393905405760512,-4.28648,1.83673,3.58872,-0.264529,0.712345,0.283119,0.585177,0.216944,0.70167,-0.104314,0.00122556,0.0169587,0.0614183,-0.293813,0.545242,-1.05182
1413393905455760384,-4.27478,1.87085,3.58315,-0.259703,0.717956,0.270024,0.586669,0.194934,0.686221,-0.0847049,0.00118877,0.0170089,0.0615073,-0.285103,0.570273,-1.03942
1413393905505760512,-4.26708,1.90445,3.57929,-0.254921,0.723392,0.257048,0.587917,0.173233,0.673439,-0.0673492,0.00114139,0.0170343,0.0616307,-0.278028,0.591804,-1.0444
1413393905555760384,-4.26038,1.9378,3.57628,-0.25205,0.73024,0.242119,0.587026,0.148321,0.653041,-0.0773357,0.00110204,0.0170367,0.0617427,-0.269956,0.607332,-1.04108
1413393905605760512,-4.25399,1.97036,3.57107,-0.249323,0.738381,0.225872,0.584476,0.149699,0.622481,-0.0849276,0.00112311,0.0170554,0.061835,-0.265184,0.630578,-1.03926
1413393905655760384,-4.24625,2.00035,3.57034,-0.247155,0.745752,0.209598,0.582097,0.157175,0.598864,-0.0561837,0.00107143,0.0171064,0.0618737,-0.257357,0.649657,-1.02065
1413393905705760512,-4.23839,2.02921,3.56621,-0.245052,0.751778,0.192973,0.580983,0.165482,0.554892,-0.0355527,0.00105027,0.0171382,0.0619154,-0.250362,0.672596,-1.00995
1413393905755760384,-4.23033,2.05525,3.56539,-0.243514,0.756542,0.174987,0.58114,0.17817,0.509622,-0.0170853,0.00105773,0.0171581,0.0619694,-0.24416,0.693955,-1.00444
1413393905805760512,-4.22102,2.07981,3.56472,-0.242287,0.762166,0.158303,0.579086,0.195966,0.470352,0.00925518,0.00103212,0.0171681,0.0619893,-0.230775,0.718776,-0.98952
1413393905855760384,-4.21035,2.10227,3.56462,-0.241649,0.770138,0.14185,0.573037,0.223674,0.427415,-0.0213583,0.0010136,0.0171555,0.0619918,-0.219229,0.745001,-0.970577
1413393905905760512,-4.19793,2.12249,3.56638,-0.238391,0.779281,0.127993,0.56525,0.267097,0.383924,0.00587802,0.000994514,0.0171657,0.0619887,-0.210821,0.763533,-0.949071
1413393905955760384,-4.18332,2.13955,3.56783,-0.233578,0.788552,0.11556,0.557022,0.318005,0.326877,0.032162,0.000959346,0.0172067,0.0620129,-0.205086,0.783095,-0.932342
1413393906005760512,-4.16611,2.15399,3.57177,-0.226651,0.795785,0.104193,0.551815,0.376725,0.267502,0.0555525,0.000906296,0.0172424,0.0620046,-0.2008,0.798583,-0.912076
1413393906055760384,-4.14512,2.16555,3.57729,-0.212219,0.801645,0.0988527,0.550051,0.437939,0.200647,0.0964547,0.00090438,0.017211,0.0620081,-0.195172,0.816515,-0.892657
1413393906105760512,-4.12131,2.17466,3.5833,-0.193479,0.804554,0.0966624,0.553096,0.496362,0.153019,0.106068,0.000882859,0.0172453,0.0620186,-0.190554,0.83555,-0.874382
1413393906155760384,-4.09531,2.18146,3.58852,-0.175459,0.804058,0.0942532,0.560197,0.534857,0.12916,0.0866609,0.000886565,0.0172819,0.0620749,-0.186766,0.847997,-0.853897
1413393906205760512,-4.06827,2.18788,3.59163,-0.157075,0.800715,0.0933288,0.570501,0.555876,0.111355,0.0429708,0.000880892,0.0173204,0.0621242,-0.18255,0.864845,-0.839185
1413393906255760384,-4.0399,2.19345,3.59265,-0.141684,0.795121,0.090575,0.58267,0.580921,0.119191,-0.00776459,0.00086254,0.0173413,0.062155,-0.178147,0.881392,-0.826081
1413393906305760512,-4.01033,2.19992,3.59144,-0.128198,0.789808,0.0875041,0.593389,0.604965,0.130702,-0.0615233,0.000862569,0.0173585,0.0622048,-0.174123,0.896764,-0.810875
1413393906355760384,-3.97996,2.20693,3.58659,-0.117232,0.78585,0.0841337,0.601347,0.604532,0.142322,-0.127488,0.00085703,0.0173578,0.0622395,-0.169564,0.912119,-0.799347
1413393906405760512,-3.95005,2.21533,3.57905,-0.109632,0.783821,0.0788242,0.606129,0.584072,0.169056,-0.187057,0.000864436,0.0173721,0.0622458,-0.166884,0.926858,-0.78328
1413393906455760384,-3.92159,2.22433,3.56851,-0.103297,0.781521,0.0728133,0.610944,0.553055,0.176797,-0.250976,0.000888144,0.0173801,0.0622756,-0.164893,0.940025,-0.764932
1413393906505760512,-3.89404,2.23348,3.55378,-0.0990769,0.780534,0.0657836,0.613696,0.547071,0.196028,-0.318933,0.000889694,0.0173994,0.0623056,-0.16296,0.952803,-0.753111
1413393906555760384,-3.86664,2.24474,3.53674,-0.0972333,0.780014,0.0565285,0.615571,0.531865,0.220479,-0.37727,0.000928918,0.0174293,0.0623006,-0.159474,0.972554,-0.736299
1413393906605760512,-3.83833,2.25484,3.51477,-0.0975126,0.780531,0.0448304,0.615835,0.505378,0.221006,-0.432149,0.00100597,0.0174198,0.0622468,-0.15176,0.98924,-0.709756
1413393906655760384,-3.81086,2.26728,3.49188,-0.0992266,0.781359,0.0308831,0.615369,0.490784,0.220909,-0.455495,0.00111946,0.0173838,0.0621495,-0.136853,1.0093,-0.670598
1413393906705760512,-3.78455,2.28032,3.46973,-0.104352,0.783274,0.0148226,0.612677,0.472422,0.219451,-0.467826,0.00130415,0.0173593,0.061985,-0.126026,1.02496,-0.617227
1413393906755760384,-3.76018,2.28995,3.44512,-0.113721,0.782814,0.0028305,0.61177,0.441334,0.197757,-0.454432,0.00125758,0.0173276,0.0620244,-0.123597,1.04219,-0.613106
1413393906805760512,-3.73549,2.29946,3.42316,-0.119505,0.782028,-0.00950003,0.611605,0.43104,0.155624,-0.419339,0.00135283,0.0172751,0.0619135,-0.113133,1.06009,-0.5743
1413393906855760384,-3.71576,2.30789,3.40502,-0.12109,0.78116,-0.0170602,0.612237,0.395198,0.110347,-0.407975,0.00139343,0.0172373,0.0618346,-0.107483,1.07375,-0.537305
1413393906905760512,-3.70029,2.31546,3.38908,-0.12106,0.779353,-0.0214988,0.614403,0.361687,0.064518,-0.419368,0.00140266,0.0172132,0.061786,-0.105262,1.09026,-0.51008
1413393906955760384,-3.67681,2.3155,3.36524,-0.115915,0.777885,-0.0273196,0.617019,0.335819,0.0120626,-0.414682,0.00168517,0.0172375,0.0616618,-0.0985908,1.08948,-0.471569
1413393907005760512,-3.66379,2.31365,3.34752,-0.117273,0.776318,-0.0239329,0.618874,0.315878,-0.0427899,-0.368715,0.00137838,0.017264,0.0617931,-0.100339,1.10963,-0.473612
1413393907055760384,-3.64558,2.31148,3.32465,-0.103688,0.778032,-0.0227412,0.619191,0.276529,-0.0913305,-0.397948,0.0017063,0.0172727,0.0616435,-0.0938407,1.10802,-0.438049
1413393907105760512,-3.6286,2.30093,3.30182,-0.0981026,0.779726,-0.0124789,0.618261,0.248279,-0.121509,-0.396121,0.00135056,0.0172598,0.0617638,-0.0908701,1.1329,-0.429969
1413393907155760384,-3.62783,2.30077,3.28837,-0.0839378,0.782241,-0.0112021,0.617194,0.21257,-0.147773,-0.41747,0.00177008,0.0173189,0.0616474,-0.092357,1.1209,-0.422108
1413393907205760512,-3.6128,2.29167,3.26348,-0.0730764,0.78432,-0.00421542,0.616023,0.194579,-0.162722,-0.397724,0.00175215,0.0173216,0.0616549,-0.088904,1.12951,-0.410303
1413393907255760384,-3.59832,2.28051,3.24137,-0.0681631,0.785628,0.010137,0.61485,0.168863,-0.147785,-0.372925,0.00113733,0.0172411,0.0618251,-0.0864296,1.17079,-0.418768
1413393907305760512,-3.56511,2.27418,3.19145,-0.0607585,0.791389,0.0183723,0.608008,0.128497,-0.125781,-0.369433,0.000830175,0.0165377,0.0615713,-0.0409355,1.36984,-0.316282
1413393907355760384,-3.55888,2.26557,3.19845,-0.0452055,0.792438,0.0281659,0.607622,0.109896,-0.0773128,-0.33102,0.000850476,0.0165047,0.0615814,-0.0350807,1.38157,-0.301814
1413393907405760512,-3.55746,2.25883,3.18916,-0.0361074,0.794626,0.0327944,0.605137,0.0634771,-0.018194,-0.325115,0.000890618,0.0164926,0.0616437,-0.0286904,1.38373,-0.287239
1413393907455760384,-3.55422,2.25371,3.17619,-0.0390433,0.7968,0.0300194,0.602232,0.0228156,0.0653227,-0.248017,0.000918438,0.0165438,0.0617037,-0.0218117,1.38507,-0.278831
1413393907505760512,-3.55561,2.26039,3.16771,-0.0463249,0.798024,0.0244097,0.600347,-0.00428151,0.109264,-0.134246,0.000936415,0.0165794,0.0617234,-0.0154084,1.38927,-0.271356
1413393907555760384,-3.55414,2.26548,3.16248,-0.0594551,0.798499,0.0122056,0.598928,-0.0108133,0.139894,-0.042238,0.00105038,0.0165914,0.0616955,-0.0112047,1.39383,-0.259595
1413393907605760512,-3.55481,2.27305,3.16244,-0.0709711,0.797298,0.0069232,0.599358,-0.0329751,0.165834,0.0189194,0.000923406,0.0166232,0.0617574,-0.00836682,1.39677,-0.25689
1413393907655760384,-3.55779,2.28242,3.16275,-0.07802,0.797966,-0.000628725,0.59763,-0.042943,0.167574,-0.020031,0.00102988,0.0165861,0.0617265,-0.0039597,1.40493,-0.248945
1413393907705760512,-3.55915,2.28891,3.1594,-0.0852632,0.799331,-0.00272527,0.594804,-0.0547801,0.178161,-0.0651322,0.000869165,0.0166211,0.0617928,-0.00624272,1.4004,-0.253126
1413393907755760384,-3.56241,2.29875,3.15507,-0.0881329,0.800592,-0.00734828,0.592647,-0.0428137,0.185617,-0.119979,0.000981129,0.01659,0.0617614,-0.00427019,1.41268,-0.244343
1413393907805760512,-3.56674,2.3086,3.14473,-0.0924464,0.799279,-0.00678235,0.593767,-0.0545561,0.177522,-0.217774,0.000801915,0.0166288,0.0618775,-0.00965113,1.41584,-0.256639
1413393907855760384,-3.57013,2.31398,3.12782,-0.0930689,0.79805,-0.0114343,0.59525,-0.0621212,0.185835,-0.318353,0.000951944,0.0165765,0.0618551,-0.00623708,1.43459,-0.248858
1413393907905760512,-3.57014,2.32007,3.10445,-0.0978156,0.794373,-0.00921573,0.599432,-0.0706619,0.194711,-0.417994,0.000710627,0.0166472,0.0620545,-0.0159523,1.43853,-0.284201
1413393907955760384,-3.57743,2.33469,3.08485,-0.0934175,0.792417,-0.0128578,0.602646,-0.0795268,0.186796,-0.517825,0.000974635,0.0165836,0.0619982,-0.0130288,1.45933,-0.277715
1413393908005760512,-3.57945,2.34369,3.04884,-0.0970435,0.788941,-0.00460503,0.606739,-0.0961216,0.184991,-0.547237,0.000443771,0.0166034,0.0623418,-0.0259625,1.48633,-0.338074
1413393908055760384,-3.58801,2.35775,3.02294,-0.0894159,0.788114,-0.0103787,0.608911,-0.107692,0.186331,-0.49108,0.000922115,0.0164341,0.0622585,-0.0190003,1.53493,-0.335572
1413393908105760512,-3.59439,2.36466,2.98339,-0.096566,0.786295,0.00261684,0.610253,-0.148081,0.171446,-0.474938,0.000108263,0.0165524,0.0627887,-0.0423665,1.5612,-0.432418
1413393908155760384,-3.5993,2.37922,2.95885,-0.0905161,0.79048,-0.00748418,0.605716,-0.174578,0.176993,-0.432276,0.000744122,0.016254,0.0625854,-0.0263016,1.64097,-0.412158
1413393908205760512,-3.60289,2.37498,2.92487,-0.0996317,0.790022,0.00821866,0.604873,-0.176085,0.151537,-0.328818,-0.000270799,0.0164299,0.0631448,-0.0501844,1.65426,-0.494509
1413393908255760384,-3.61154,2.36976,2.90093,-0.102853,0.792328,0.000496871,0.601363,-0.200333,0.155518,-0.242277,-9.18002e-05,0.0158703,0.0629952,-0.0133522,1.8144,-0.456139
1413393908305760512,-3.62024,2.37435,2.89042,-0.108101,0.788689,0.00768208,0.605165,-0.22512,0.144952,-0.195533,-0.000625357,0.015937,0.0632585,-0.0166694,1.8237,-0.482766
1413393908355760384,-3.63334,2.38084,2.88359,-0.106803,0.784385,0.000861099,0.611009,-0.240727,0.152417,-0.151701,-0.00035277,0.0158116,0.0631362,0.00125063,1.8527,-0.446616
1413393908405760512,-3.64648,2.38717,2.87294,-0.111004,0.781773,0.00416924,0.613589,-0.273309,0.16393,-0.178577,-0.000701822,0.0158432,0.0632224,0.000512451,1.86057,-0.461071
1413393908455760384,-3.66123,2.39539,2.86612,-0.110286,0.782828,9.2528e-05,0.612387,-0.302877,0.171953,-0.185588,-0.000537961,0.0158002,0.0631681,0.00923632,1.87007,-0.435676
1413393908505760512,-3.67665,2.40159,2.8544,-0.11316,0.784434,0.00135366,0.6098,-0.319659,0.167647,-0.174804,-0.000724536,0.0158118,0.0632681,0.00995757,1.87998,-0.44334
1413393908555760384,-3.69477,2.41215,2.84772,-0.111511,0.787624,-0.00015661,0.605982,-0.335051,0.169697,-0.170579,-0.000628124,0.0158085,0.06325,0.0138506,1.88225,-0.425225
1413393908605760512,-3.71205,2.41885,2.8366,-0.115042,0.78991,-0.00141918,0.602333,-0.347202,0.171591,-0.187383,-0.000719891,0.0158413,0.0632997,0.0135461,1.88718,-0.428898
1413393908655760384,-3.72951,2.42681,2.82763,-0.118675,0.793263,-0.00545529,0.597177,-0.355734,0.161106,-0.187969,-0.000679168,0.0158305,0.0632744,0.0156815,1.88986,-0.418001
1413393908705760512,-3.74694,2.43399,2.81725,-0.133858,0.793983,-0.015948,0.592806,-0.347962,0.149818,-0.181015,-0.000720976,0.0158463,0.0633518,0.0170856,1.89219,-0.420722
1413393908755760384,-3.76413,2.44069,2.8096,-0.149136,0.792759,-0.0277831,0.590355,-0.344677,0.110076,-0.147644,-0.000732464,0.0158427,0.0633041,0.0219374,1.8918,-0.411347
1413393908805760512,-3.7816,2.44436,2.80351,-0.161374,0.788554,-0.0378241,0.592208,-0.344723,0.0418021,-0.100031,-0.000758896,0.0158668,0.0633491,0.0240661,1.89421,-0.406591
1413393908855760384,-3.79856,2.44354,2.8017,-0.165884,0.782522,-0.0433276,0.598552,-0.344289,-0.0606106,0.0183056,-0.000752269,0.01588,0.0633585,0.0244881,1.89779,-0.398985
1413393908905760512,-3.81692,2.43821,2.80378,-0.15956,0.778254,-0.0409883,0.605955,-0.362853,-0.146791,0.0831483,-0.000775948,0.0158997,0.0633579,0.0230549,1.90002,-0.391792
1413393908955760384,-3.83487,2.4295,2.80801,-0.145517,0.779009,-0.0327504,0.609013,-0.356767,-0.210881,0.108683,-0.000790774,0.0159037,0.0633718,0.0213464,1.90218,-0.386971
1413393909005760512,-3.85419,2.4179,2.81415,-0.132342,0.782092,-0.024566,0.608452,-0.387794,-0.251974,0.138579,-0.000785695,0.0159401,0.0633892,0.0179258,1.90501,-0.382072
1413393909055760384,-3.87441,2.40426,2.82254,-0.119028,0.785509,-0.0166209,0.607068,-0.414278,-0.287089,0.181904,-0.000825725,0.0159517,0.0633576,0.0138113,1.90552,-0.380045
1413393909105760512,-3.89598,2.38947,2.83193,-0.108949,0.78881,-0.0109469,0.604805,-0.437928,-0.303852,0.201623,-0.000844765,0.0159546,0.0634065,0.0133855,1.90763,-0.376802
1413393909155760384,-3.91859,2.37447,2.84214,-0.101481,0.791096,-0.00754813,0.603168,-0.459294,-0.292327,0.212303,-0.000846728,0.0159453,0.063428,0.0149136,1.91449,-0.374022
1413393909205760512,-3.94195,2.36027,2.85247,-0.0963382,0.792482,-0.00605713,0.602208,-0.474378,-0.272832,0.191566,-0.000843089,0.0159627,0.0634501,0.0116377,1.91972,-0.364234
1413393909255760384,-3.96638,2.34765,2.86067,-0.093243,0.792062,-0.0062605,0.603245,-0.491601,-0.239909,0.149402,-0.0008305,0.0159909,0.0634955,0.00990236,1.92578,-0.362081
1413393909305760512,-3.99179,2.33639,2.86688,-0.0896439,0.791681,-0.00606032,0.604292,-0.516911,-0.211657,0.100998,-0.000828142,0.0159946,0.0635188,0.00876332,1.92981,-0.356835
1413393909355760384,-4.01746,2.32662,2.87051,-0.0866501,0.791657,-0.00632185,0.604757,-0.513793,-0.183875,0.0472335,-0.000830543,0.0159909,0.063552,0.00925438,1.93278,-0.356994
1413393909405760512,-4.04352,2.31826,2.87149,-0.0846935,0.79214,-0.00716167,0.604392,-0.533692,-0.151448,-0.00969394,-0.000824856,0.0160145,0.0636074,0.00565339,1.93332,-0.352488
1413393909455760384,-4.07032,2.3115,2.86971,-0.0838835,0.792798,-0.00824375,0.603628,-0.54752,-0.120294,-0.0538357,-0.000819274,0.0160101,0.0636319,0.00350404,1.93654,-0.351251
1413393909505760512,-4.09795,2.30631,2.86572,-0.083661,0.793335,-0.00945916,0.602935,-0.560853,-0.0827513,-0.105714,-0.00081925,0.0160415,0.0636545,9.45483e-05,1.93847,-0.345358
1413393909555760384,-4.12592,2.30293,2.85869,-0.0835814,0.795443,-0.0105521,0.600144,-0.567033,-0.0510057,-0.176901,-0.000822023,0.0160561,0.0636843,-0.000236467,1.93995,-0.33992
1413393909605760512,-4.15437,2.30089,2.84864,-0.0831366,0.79958,-0.0114021,0.594668,-0.568075,-0.0225327,-0.229901,-0.000812248,0.0160875,0.0637142,-0.000987656,1.94169,-0.336147
1413393909655760384,-4.18279,2.30045,2.83564,-0.082306,0.805786,-0.0120787,0.586335,-0.56485,0.00424489,-0.280131,-0.000801629,0.016132,0.063752,-0.00287024,1.94343,-0.33548
1413393909705760512,-4.21089,2.30126,2.8209,-0.0807796,0.81263,-0.0125418,0.577018,-0.5535,0.0271899,-0.306007,-0.000797616,0.0161295,0.0637736,-0.000673133,1.94473,-0.331782
1413393909755760384,-4.23825,2.30355,2.80489,-0.0793573,0.819736,-0.0135148,0.567056,-0.540697,0.061755,-0.325668,-0.000787398,0.0161494,0.0637778,-0.00160477,1.94518,-0.327476
1413393909805760512,-4.2646,2.30732,2.78793,-0.0783218,0.825238,-0.0152872,0.559119,-0.506258,0.0907483,-0.352962,-0.000777928,0.0161627,0.0637978,-0.00168969,1.94821,-0.328165
1413393909855760384,-4.28891,2.31254,2.76984,-0.0768952,0.83018,-0.0169622,0.551905,-0.461288,0.12438,-0.371775,-0.000775143,0.0161726,0.0638151,-0.00243494,1.94918,-0.329362
1413393909905760512,-4.31098,2.3195,2.75036,-0.0754927,0.834836,-0.018822,0.544973,-0.408678,0.15842,-0.4055,-0.000756451,0.016147,0.063867,0.00210058,1.95079,-0.331814
1413393909955760384,-4.33034,2.32833,2.72961,-0.0740097,0.838255,-0.0206214,0.539839,-0.359709,0.194611,-0.425586,-0.000757393,0.0161503,0.063881,0.0014218,1.95176,-0.330679
1413393910005760512,-4.34684,2.33871,2.7082,-0.0721474,0.841491,-0.0220914,0.534976,-0.297276,0.21708,-0.415933,-0.000739895,0.0161508,0.0638979,0.00375259,1.9549,-0.332457
1413393910055760384,-4.35967,2.35046,2.68789,-0.0710887,0.844575,-0.0238013,0.530163,-0.219606,0.252676,-0.399601,-0.000736678,0.016183,0.063908,0.00396468,1.95567,-0.334343
1413393910105760512,-4.36854,2.36334,2.67059,-0.0716925,0.846848,-0.0271892,0.526278,-0.141882,0.261798,-0.306711,-0.000725291,0.0161825,0.0639355,0.00105695,1.9552,-0.334113
1413393910155760384,-4.37317,2.37689,2.65709,-0.0727041,0.849378,-0.0304594,0.521865,-0.044687,0.274655,-0.225135,-0.000735528,0.0161883,0.063961,-0.00256695,1.95293,-0.335862
1413393910205760512,-4.37282,2.39087,2.64819,-0.0733631,0.850705,-0.0336174,0.519412,0.0637846,0.284725,-0.127663,-0.000736519,0.0162063,0.0639686,-0.00491446,1.95214,-0.338639
1413393910255760384,-4.36778,2.40517,2.64382,-0.0728798,0.852625,-0.0348491,0.51624,0.150338,0.289322,-0.0451179,-0.000726924,0.0162551,0.0639751,-0.00566648,1.95449,-0.339917
1413393910305760512,-4.35763,2.41962,2.6434,-0.0732864,0.854236,-0.0374714,0.513327,0.254395,0.282119,0.0186947,-0.000721997,0.0163023,0.0640046,-0.00606737,1.95599,-0.346892
1413393910355760384,-4.34195,2.43395,2.64604,-0.0765117,0.857742,-0.0411095,0.506689,0.371595,0.286647,0.086983,-0.000734612,0.0163343,0.0639959,-0.00615023,1.9561,-0.351384
1413393910405760512,-4.32021,2.44773,2.6524,-0.0830068,0.861255,-0.0465025,0.499186,0.476757,0.272864,0.147339,-0.000730301,0.0163323,0.0640026,-0.00245136,1.95938,-0.355259
1413393910455760384,-4.29345,2.46077,2.66152,-0.091573,0.863142,-0.0528952,0.493763,0.586728,0.255013,0.190486,-0.000745696,0.0163884,0.0639687,-0.00355665,1.96309,-0.359128
1413393910505760512,-4.26096,2.47333,2.67126,-0.098734,0.864739,-0.0568696,0.489126,0.701851,0.247537,0.196928,-0.000746246,0.0164104,0.0640067,-0.00278386,1.96467,-0.360606
1413393910555760384,-4.22294,2.48573,2.67976,-0.104323,0.865326,-0.0589314,0.486677,0.81244,0.236316,0.166759,-0.000761807,0.0164135,0.0640086,0.000917205,1.96466,-0.361292
1413393910605760512,-4.18027,2.4977,2.68691,-0.107969,0.863617,-0.0589834,0.488907,0.902537,0.238858,0.122965,-0.000755326,0.0164169,0.0640465,0.00440737,1.96827,-0.360585
1413393910655760384,-4.13267,2.50918,2.69232,-0.110169,0.860242,-0.057556,0.494503,0.996218,0.228361,0.0715713,-0.000755428,0.0164263,0.0640532,0.00639179,1.96975,-0.363241
1413393910705760512,-4.08062,2.52047,2.69501,-0.114704,0.855658,-0.0577644,0.501354,1.09502,0.222021,0.0403996,-0.000760894,0.0164319,0.0640761,0.00824515,1.9692,-0.3693
1413393910755760384,-4.02422,2.53145,2.69542,-0.11806,0.850203,-0.0566809,0.509906,1.17206,0.208308,-0.0132172,-0.000769848,0.016438,0.0641007,0.0111303,1.96777,-0.374996
1413393910805760512,-3.96344,2.54198,2.69279,-0.119433,0.845434,-0.0533036,0.517818,1.24873,0.20286,-0.0660754,-0.000772398,0.0164593,0.0641123,0.0119927,1.96792,-0.379345
1413393910855760384,-3.89908,2.55207,2.68783,-0.119939,0.84098,-0.0483029,0.525389,1.3224,0.202434,-0.108975,-0.000792586,0.0164334,0.0641114,0.0157721,1.96493,-0.38166
1413393910905760512,-3.83177,2.56163,2.68135,-0.120537,0.835696,-0.0431448,0.534061,1.36742,0.182968,-0.14905,-0.000818868,0.0164304,0.0640997,0.014315,1.96201,-0.384463
1413393910955760384,-3.76233,2.57051,2.67336,-0.119847,0.828269,-0.0369296,0.546116,1.4068,0.169292,-0.173407,-0.000805552,0.0164031,0.0641056,0.0147768,1.96429,-0.390005
1413393911005760512,-3.69104,2.57916,2.66352,-0.120512,0.820961,-0.0311414,0.557252,1.43887,0.174304,-0.227326,-0.000783039,0.016402,0.0641406,0.0173045,1.96882,-0.394312
1413393911055760384,-3.61879,2.58777,2.65126,-0.121853,0.814503,-0.0250632,0.566664,1.45271,0.166525,-0.258549,-0.000795398,0.0164345,0.0641316,0.0150864,1.96478,-0.401173
1413393911105760512,-3.54605,2.59596,2.63774,-0.124535,0.808958,-0.0198133,0.574182,1.4597,0.153462,-0.282848,-0.000799082,0.0164453,0.06413,0.015326,1.96241,-0.401437
1413393911155760384,-3.47323,2.60348,2.62356,-0.127214,0.805352,-0.0147445,0.578799,1.45051,0.151356,-0.285788,-0.000786597,0.0165002,0.0641476,0.0125745,1.96401,-0.406512
1413393911205760512,-3.40032,2.6106,2.6094,-0.128306,0.801954,-0.00983766,0.583362,1.46197,0.141315,-0.286441,-0.000765952,0.0165677,0.064185,0.0109573,1.96359,-0.410401
1413393911255760384,-3.3276,2.6173,2.59474,-0.129106,0.799891,-0.00566029,0.586066,1.44051,0.124317,-0.308133,-0.000782947,0.0165795,0.0641639,0.00923133,1.96158,-0.412544
1413393911305760512,-3.25565,2.62344,2.57972,-0.129683,0.797418,-0.00256429,0.589321,1.44212,0.12015,-0.288651,-0.00079406,0.0165879,0.0641664,0.00914247,1.96007,-0.415863
1413393911355760384,-3.18415,2.62892,2.56698,-0.128121,0.791587,-0.000231016,0.597473,1.41653,0.102483,-0.247581,-0.000754888,0.0166023,0.0642044,0.00945906,1.96267,-0.41868
1413393911405760512,-3.11391,2.63403,2.55502,-0.125159,0.785566,0.00147377,0.605986,1.39587,0.0972464,-0.211418,-0.000767815,0.0166921,0.0642088,0.0076985,1.96268,-0.421089
1413393911455760384,-3.04541,2.63868,2.54481,-0.122182,0.779051,0.00240541,0.614935,1.34288,0.0891188,-0.179833,-0.000713931,0.016683,0.0642263,0.00730868,1.96437,-0.4228
1413393911505760512,-2.9798,2.64281,2.53593,-0.118866,0.774695,0.0033447,0.621053,1.29101,0.0865986,-0.185243,-0.000692111,0.0167196,0.0642324,0.00847119,1.96471,-0.427069
1413393911555760384,-2.91643,2.64653,2.5288,-0.114848,0.772544,0.00396296,0.624476,1.22544,0.0618597,-0.111377,-0.000638552,0.0167827,0.0642446,0.00957098,1.96843,-0.432612
1413393911605760512,-2.85711,2.64944,2.5261,-0.112393,0.76997,0.00328479,0.628095,1.1435,0.0520104,0.00686134,-0.000602214,0.0168347,0.0642518,0.010913,1.97282,-0.432852
1413393911655760384,-2.80077,2.6523,2.52833,-0.110377,0.766233,0.0021672,0.633008,1.1098,0.0655393,0.0855936,-0.000542407,0.0169002,0.064279,0.0126496,1.97719,-0.430437
1413393911705760512,-2.74714,2.65532,2.53376,-0.107266,0.765034,0.0011059,0.634993,1.03121,0.0539754,0.131617,-0.000540953,0.0168953,0.0642943,0.0204491,1.97706,-0.428269
1413393911755760384,-2.6983,2.65842,2.54116,-0.105817,0.769618,-0.000467702,0.629674,0.932078,0.0646045,0.161286,-0.00052039,0.0169115,0.0643005,0.0269089,1.97864,-0.426258
1413393911805760512,-2.65264,2.66165,2.55173,-0.104315,0.776553,-0.000828871,0.621355,0.884769,0.0750752,0.253705,-0.000506401,0.0169663,0.064335,0.0318674,1.97971,-0.422424
1413393911855760384,-2.61001,2.665,2.56577,-0.103496,0.784997,-0.00155582,0.610791,0.820077,0.0647851,0.319746,-0.000455266,0.0169849,0.0643265,0.038984,1.98382,-0.41851
1413393911905760512,-2.56968,2.66867,2.58269,-0.110045,0.793718,-0.00703045,0.598207,0.773346,0.0804348,0.351851,-0.000404175,0.0169981,0.0643288,0.0457594,1.98658,-0.414897
1413393911955760384,-2.53126,2.6726,2.60232,-0.120089,0.803592,-0.014628,0.582756,0.759054,0.07615,0.406059,-0.000352745,0.0169121,0.0643044,0.0599195,1.99101,-0.413843
1413393912005760512,-2.49229,2.67606,2.6252,-0.129631,0.814859,-0.021777,0.564558,0.79603,0.0538987,0.50291,-0.000294984,0.0169333,0.064347,0.0675301,1.9931,-0.409715
1413393912055760384,-2.45243,2.6782,2.65235,-0.136638,0.826034,-0.0273277,0.546123,0.826081,0.027286,0.578807,-0.000241712,0.0169943,0.0643844,0.0735079,1.99438,-0.403181
1413393912105760512,-2.40977,2.67858,2.68313,-0.14097,0.834243,-0.0316108,0.532134,0.888605,-0.0122106,0.629406,-0.000204997,0.0169998,0.0643841,0.0828973,1.99572,-0.398274
1413393912155760384,-2.3636,2.67744,2.71497,-0.143202,0.841386,-0.0348329,0.519951,0.960192,-0.0492259,0.635323,-0.000240099,0.0169254,0.0643951,0.0960974,1.98582,-0.380573
1413393912205760512,-2.31366,2.67443,2.74674,-0.143972,0.84672,-0.0371418,0.510841,1.03609,-0.0800381,0.63854,-0.000236912,0.0168972,0.0644261,0.109659,1.98125,-0.371583
1413393912255760384,-2.25945,2.66973,2.77919,-0.143167,0.850331,-0.038569,0.504928,1.12703,-0.109504,0.633205,-0.000177021,0.0167954,0.0643948,0.13007,1.98541,-0.358919
1413393912305760512,-2.20049,2.66385,2.81056,-0.142397,0.852343,-0.0404132,0.501599,1.22925,-0.143887,0.64689,-0.000151305,0.0167633,0.0644124,0.146773,1.98492,-0.340936
1413393912355760384,-2.13618,2.65646,2.84437,-0.140933,0.851687,-0.042223,0.502974,1.33465,-0.16933,0.673453,-0.000180592,0.0166569,0.0644143,0.170148,1.97583,-0.323041
1413393912405760512,-2.06686,2.64758,2.88052,-0.139148,0.847313,-0.0442515,0.510626,1.43803,-0.204024,0.704935,-0.00021395,0.0165792,0.0644309,0.186773,1.96412,-0.305496
1413393912455760384,-1.993,2.63719,2.91755,-0.136525,0.840149,-0.0459217,0.522878,1.51552,-0.23853,0.713659,-0.00029405,0.0165061,0.0644307,0.203003,1.94972,-0.287594
1413393912505760512,-1.91587,2.62551,2.95328,-0.133766,0.83123,-0.0467989,0.537561,1.56343,-0.249047,0.684968,-0.00035501,0.0164707,0.0644511,0.213702,1.93827,-0.269206
1413393912555760384,-1.83707,2.61277,2.9864,-0.13272,0.823233,-0.0483817,0.549847,1.59605,-0.267015,0.624199,-0.000348819,0.016474,0.0645102,0.22173,1.93588,-0.258108
1413393912605760512,-1.75681,2.60026,3.01695,-0.130895,0.817149,-0.0481091,0.559303,1.60641,-0.269322,0.55583,-0.00042662,0.0164639,0.0645333,0.23062,1.92067,-0.239123
1413393912655760384,-1.67693,2.58754,3.04377,-0.127737,0.811622,-0.0458192,0.568202,1.59636,-0.265993,0.475015,-0.000510482,0.0164645,0.0645797,0.235764,1.9035,-0.223636
1413393912705760512,-1.59678,2.57536,3.06687,-0.124511,0.806201,-0.0434767,0.576755,1.60803,-0.281041,0.407785,-0.000588974,0.0165638,0.0646235,0.233411,1.89038,-0.19595
1413393912755760384,-1.51609,2.56303,3.08605,-0.121152,0.800903,-0.0411532,0.584963,1.60671,-0.270413,0.333348,-0.000639391,0.0166237,0.0646627,0.238334,1.8796,-0.168182
1413393912805760512,-1.43521,2.54969,3.10115,-0.116235,0.796721,-0.0395282,0.591745,1.60906,-0.28078,0.272664,-0.000653406,0.0166768,0.0646361,0.248613,1.87655,-0.145491
1413393912855760384,-1.35468,2.5367,3.11373,-0.111095,0.793908,-0.0395721,0.596492,1.59196,-0.289993,0.205788,-0.000660473,0.0167271,0.0646832,0.256947,1.86856,-0.111245
1413393912905760512,-1.27559,2.52403,3.12305,-0.104432,0.792068,-0.0415508,0.599997,1.56366,-0.280636,0.122164,-0.000713158,0.0167586,0.0646915,0.265965,1.84995,-0.0834907
1413393912955760384,-1.1979,2.5116,3.12876,-0.0984678,0.791882,-0.0459913,0.600925,1.53501,-0.285812,0.0661126,-0.000768417,0.0168004,0.0646855,0.275187,1.83132,-0.0521608
1413393913005760512,-1.12168,2.49856,3.13171,-0.0952209,0.791637,-0.0552885,0.600988,1.50759,-0.287878,0.017009,-0.000814209,0.0168359,0.0646809,0.286124,1.81582,-0.0242505
1413393913055760384,-1.0468,2.48557,3.13257,-0.0932885,0.79146,-0.066956,0.600337,1.47303,-0.290076,-0.0194226,-0.000863886,0.0168212,0.0646718,0.30072,1.79848,0.00859432
1413393913105760512,-0.974039,2.47096,3.13088,-0.0910797,0.789919,-0.080813,0.601,1.43812,-0.302153,-0.0716703,-0.000870934,0.0168187,0.0646735,0.316351,1.79089,0.0365925
1413393913155760384,-0.902802,2.45665,3.12793,-0.0887284,0.785994,-0.0969278,0.604107,1.40561,-0.327673,-0.106481,-0.000962362,0.0168156,0.0646835,0.326628,1.76794,0.0650087
1413393913205760512,-0.833338,2.44119,3.12311,-0.0851044,0.782366,-0.113313,0.606482,1.36469,-0.338106,-0.162649,-0.000997899,0.0168327,0.0646929,0.339515,1.74713,0.101165
1413393913255760384,-0.765865,2.42451,3.11537,-0.0819015,0.779564,-0.131183,0.606929,1.3111,-0.379046,-0.191253,-0.00099863,0.016856,0.0646728,0.350531,1.72874,0.13922
1413393913305760512,-0.701545,2.40634,3.10566,-0.0760449,0.777684,-0.148641,0.606078,1.25656,-0.408237,-0.265254,-0.00105592,0.0169037,0.064694,0.358007,1.70139,0.171389
1413393913355760384,-0.63991,2.38625,3.0927,-0.0687832,0.777503,-0.165867,0.602699,1.19689,-0.439919,-0.32963,-0.00105985,0.016927,0.0647054,0.368562,1.67994,0.208619
1413393913405760512,-0.58093,2.36352,3.07754,-0.0622986,0.775806,-0.184501,0.600169,1.14126,-0.508137,-0.33661,-0.00103847,0.016961,0.0647237,0.379463,1.66226,0.243888
1413393913455760384,-0.524808,2.33744,3.06197,-0.0547467,0.772867,-0.203744,0.598471,1.08497,-0.586882,-0.312048,-0.00100691,0.0170017,0.064748,0.386066,1.64453,0.280125
1413393913505760512,-0.47224,2.30761,3.04737,-0.0449136,0.768184,-0.222287,0.598718,1.0083,-0.658856,-0.292526,-0.000992216,0.0170519,0.0647629,0.39155,1.62507,0.31239
1413393913555760384,-0.423449,2.27472,3.03472,-0.0318926,0.7622,-0.23959,0.600524,0.932648,-0.734929,-0.278448,-0.000986154,0.0171171,0.064775,0.396997,1.59644,0.349484
1413393913605760512,-0.377655,2.23722,3.02217,-0.0171957,0.755659,-0.256087,0.602581,0.868343,-0.81332,-0.246542,-0.000939794,0.0171797,0.0647853,0.4001,1.57587,0.385459
1413393913655760384,-0.336195,2.19713,3.0107,-0.00038539,0.748468,-0.270829,0.605349,0.777613,-0.867888,-0.221124,-0.000908027,0.017191,0.0648076,0.407834,1.54895,0.416641
1413393913705760512,-0.299708,2.15372,3.00255,0.0172289,0.741805,-0.284849,0.606868,0.686865,-0.928674,-0.179462,-0.000890283,0.0172022,0.0648181,0.416023,1.52609,0.443094
1413393913755760384,-0.267939,2.10722,2.99781,0.033548,0.734364,-0.299309,0.608275,0.588153,-0.977116,-0.140115,-0.000868417,0.0171959,0.0648414,0.423023,1.50269,0.47107
1413393913805760512,-0.242112,2.05995,2.99374,0.04846,0.72778,-0.313416,0.608078,0.467372,-1.00071,-0.13384,-0.000857803,0.0171753,0.064867,0.427241,1.4752,0.489395
1413393913855760384,-0.221079,2.01051,2.98979,0.0628782,0.72174,-0.327326,0.606626,0.373023,-1.0565,-0.0735416,-0.000872405,0.0171689,0.0649038,0.432166,1.45055,0.511769
1413393913905760512,-0.204679,1.95836,2.98716,0.0750043,0.716529,-0.341834,0.603415,0.258443,-1.06736,-0.0580318,-0.000865847,0.0172075,0.0649358,0.428322,1.4298,0.553002
1413393913955760384,-0.194464,1.90558,2.98493,0.0889267,0.712527,-0.354365,0.599018,0.144588,-1.0912,-0.0320798,-0.000866846,0.0172233,0.0649479,0.42891,1.40915,0.580863
1413393914005760512,-0.19016,1.85091,2.98474,0.107616,0.707823,-0.36441,0.595492,0.0319257,-1.09567,0.000207409,-0.000854688,0.0172328,0.0649873,0.435321,1.39629,0.606904
1413393914055760384,-0.190778,1.79629,2.98626,0.126917,0.702745,-0.373633,0.59198,-0.0681231,-1.08481,0.0356926,-0.000835185,0.0172742,0.064994,0.442448,1.38128,0.641611
1413393914105760512,-0.196462,1.74275,2.98856,0.14795,0.699927,-0.382032,0.585034,-0.161681,-1.06442,0.0601963,-0.000840894,0.0172992,0.0649952,0.450201,1.36468,0.670255
1413393914155760384,-0.206318,1.69082,2.99199,0.16927,0.700226,-0.389997,0.573527,-0.228614,-1.02317,0.0399873,-0.000850556,0.01733,0.0649951,0.458379,1.34351,0.699084
1413393914205760512,-0.219566,1.64092,2.99378,0.186323,0.704562,-0.39996,0.555794,-0.287988,-0.982577,0.0551597,-0.000843833,0.0173276,0.0650174,0.467948,1.32933,0.717564
1413393914255760384,-0.235297,1.59368,2.99721,0.200218,0.706799,-0.41167,0.539328,-0.338859,-0.919971,0.0415405,-0.000855392,0.0173422,0.0650346,0.474235,1.30987,0.746997
1413393914305760512,-0.252814,1.54837,3.00049,0.212486,0.707594,-0.423997,0.523819,-0.356533,-0.890796,0.0686397,-0.000837501,0.0173567,0.0650599,0.480159,1.29485,0.771778
1413393914355760384,-0.271118,1.50456,3.00473,0.223212,0.706118,-0.43694,0.510546,-0.354443,-0.87127,0.0892927,-0.000846243,0.017373,0.0650712,0.486577,1.27863,0.796287
1413393914405760512,-0.288978,1.46145,3.00934,0.232645,0.703431,-0.450119,0.498451,-0.350479,-0.849208,0.0867268,-0.000840614,0.0173846,0.0650851,0.490665,1.26433,0.820893
1413393914455760384,-0.306561,1.41972,3.01408,0.238355,0.698447,-0.465407,0.488626,-0.339206,-0.819377,0.0827846,-0.000852273,0.0174092,0.0650916,0.493538,1.24477,0.850467
1413393914505760512,-0.32389,1.37866,3.01854,0.24325,0.693011,-0.479941,0.479815,-0.327263,-0.809536,0.0967064,-0.000871574,0.0174211,0.0651209,0.496878,1.22641,0.875413
1413393914555760384,-0.340776,1.33792,3.02399,0.248253,0.684734,-0.493965,0.474877,-0.332139,-0.804272,0.108262,-0.000878012,0.0174383,0.0651419,0.497606,1.21182,0.901436
1413393914605760512,-0.358203,1.29776,3.03002,0.253227,0.676089,-0.507133,0.470739,-0.327038,-0.789228,0.129628,-0.000899258,0.0174584,0.0651635,0.502617,1.19458,0.923823
1413393914655760384,-0.375492,1.25834,3.03744,0.258381,0.667838,-0.518991,0.466776,-0.33003,-0.772994,0.124501,-0.000945106,0.0174942,0.0651813,0.503257,1.1791,0.946417
1413393914705760512,-0.392943,1.2196,3.04454,0.262141,0.658996,-0.53238,0.462143,-0.355781,-0.770816,0.135739,-0.000959842,0.0175192,0.0652068,0.506808,1.16374,0.965542
1413393914755760384,-0.410908,1.18143,3.05204,0.264417,0.649287,-0.546569,0.458009,-0.357117,-0.763698,0.142219,-0.000968455,0.0175419,0.065212,0.509616,1.14819,0.984273
1413393914805760512,-0.429327,1.1436,3.06046,0.266712,0.641236,-0.559655,0.452181,-0.37885,-0.765274,0.147335,-0.00100641,0.0175697,0.0652246,0.514662,1.13084,1.00138
1413393914855760384,-0.449035,1.10523,3.06865,0.26938,0.633821,-0.572439,0.444993,-0.411158,-0.774403,0.142949,-0.001036,0.0176029,0.0652584,0.515527,1.11024,1.02287
1413393914905760512,-0.469993,1.06573,3.07683,0.274621,0.630273,-0.580576,0.4362,-0.418933,-0.786767,0.149997,-0.00103863,0.0176092,0.0652552,0.522445,1.10573,1.03287
1413393914955760384,-0.492033,1.02562,3.08527,0.280953,0.63072,-0.585112,0.425325,-0.443402,-0.796276,0.144752,-0.00109514,0.017638,0.0653199,0.526317,1.09028,1.04866
1413393915005760512,-0.513579,0.9847,3.09529,0.285797,0.633041,-0.5885,0.41382,-0.458591,-0.810556,0.139518,-0.00118996,0.0176913,0.065345,0.526002,1.07999,1.05851
1413393915055760384,-0.534028,0.943311,3.1079,0.290089,0.635178,-0.590078,0.405221,-0.448027,-0.832196,0.123113,-0.0012721,0.0177577,0.0654571,0.521951,1.07518,1.0529
1413393915105760512,-0.555157,0.901401,3.12012,0.292676,0.637065,-0.590871,0.399198,-0.450312,-0.864492,0.110225,-0.00135122,0.0178016,0.0654968,0.514402,1.07606,1.04484
1413393915155760384,-0.57694,0.857824,3.12727,0.294595,0.638555,-0.591966,0.393748,-0.439948,-0.898137,0.0885538,-0.0014059,0.0178173,0.0655508,0.508971,1.07551,1.04696
1413393915205760512,-0.601006,0.812259,3.12798,0.295373,0.63936,-0.592895,0.390446,-0.422916,-0.92741,0.0699364,-0.00146674,0.0177979,0.0655828,0.507583,1.07954,1.05438
1413393915255760384,-0.624662,0.764007,3.12768,0.296061,0.640063,-0.592668,0.389115,-0.415445,-0.945089,0.0348951,-0.0015449,0.0177853,0.0656256,0.506296,1.09604,1.06157
1413393915305760512,-0.647698,0.714538,3.12958,0.295954,0.640934,-0.591239,0.389937,-0.387087,-0.972305,-0.00599358,-0.00164616,0.0177616,0.065673,0.508743,1.1117,1.07331
1413393915355760384,-0.666228,0.662187,3.12707,0.297058,0.643448,-0.585125,0.394157,-0.351058,-0.987106,-0.0486081,-0.00178502,0.0177258,0.0657285,0.505892,1.14463,1.0727
1413393915405760512,-0.678957,0.611029,3.13112,0.301676,0.647299,-0.574952,0.399281,-0.314663,-1.00893,-0.0669143,-0.00189108,0.0177727,0.0657723,0.499543,1.14783,1.07296
1413393915455760384,-0.69358,0.559541,3.13086,0.30922,0.652358,-0.561882,0.403857,-0.273857,-1.02022,-0.0697473,-0.00196881,0.01778,0.065775,0.498305,1.14409,1.0743
1413393915505760512,-0.705965,0.507137,3.12938,0.31598,0.656612,-0.549715,0.408449,-0.242871,-1.04178,-0.0552485,-0.00198539,0.0177535,0.0657692,0.5037,1.14106,1.08023
1413393915555760384,-0.716546,0.453947,3.12767,0.318852,0.659967,-0.540607,0.412942,-0.195639,-1.03678,-0.0586108,-0.00197849,0.017725,0.0657854,0.508408,1.13779,1.09095
1413393915605760512,-0.725065,0.402825,3.12723,0.318681,0.661005,-0.534246,0.419638,-0.162746,-1.01761,-0.0596145,-0.00199865,0.0176938,0.0658244,0.509193,1.12435,1.0989
1413393915655760384,-0.732229,0.352962,3.12629,0.315843,0.661335,-0.53082,0.425569,-0.134355,-1.00127,-0.04921,-0.00199581,0.0177099,0.0658416,0.497659,1.11255,1.10723
1413393915705760512,-0.73696,0.304108,3.12753,0.314526,0.662623,-0.526738,0.429593,-0.0874926,-0.975495,-0.0374718,-0.00199837,0.0177501,0.0658526,0.487272,1.09802,1.11493
1413393915755760384,-0.741325,0.25701,3.12733,0.314417,0.663943,-0.522741,0.432507,-0.0586304,-0.957161,-0.0236855,-0.00199031,0.0177564,0.0658623,0.481135,1.07998,1.12357
1413393915805760512,-0.745253,0.211529,3.12509,0.315512,0.66595,-0.519086,0.433028,-0.0257798,-0.933438,-0.0243662,-0.00192269,0.0177458,0.0658603,0.483001,1.0627,1.13679
1413393915855760384,-0.746276,0.16759,3.12423,0.316018,0.668361,-0.516233,0.432353,0.00347967,-0.907246,-0.00705092,-0.00182573,0.0178005,0.0658513,0.476125,1.04315,1.14923
1413393915905760512,-0.744719,0.126249,3.13442,0.316329,0.670472,-0.513723,0.431847,0.0375313,-0.885689,0.000390762,-0.00177845,0.0178527,0.0658531,0.469197,1.01125,1.14875
1413393915955760384,-0.744305,0.0862952,3.137,0.318135,0.671468,-0.511052,0.432141,0.0714698,-0.868237,0.0239782,-0.00171994,0.0179057,0.0658299,0.460319,0.975981,1.149
1413393916005760512,-0.739571,0.0452849,3.13824,0.321526,0.672167,-0.507317,0.432945,0.118279,-0.84595,0.0518697,-0.00164678,0.0179768,0.0658303,0.452549,0.952063,1.15018
1413393916055760384,-0.73263,0.00902977,3.1518,0.324314,0.672692,-0.504044,0.433872,0.156935,-0.816635,0.0724985,-0.00159854,0.0180324,0.0658286,0.446108,0.924477,1.14223
1413393916105760512,-0.723611,-0.0274559,3.15743,0.329275,0.672753,-0.501371,0.433138,0.197907,-0.786984,0.0741262,-0.00146505,0.0180505,0.0658039,0.443542,0.883873,1.14144
1413393916155760384,-0.707796,-0.0757776,3.15449,0.329185,0.67436,-0.497096,0.435627,0.250072,-0.752751,0.0964296,-0.00164026,0.0180633,0.0658766,0.454326,0.900555,1.15991
1413393916205760512,-0.697094,-0.117006,3.15172,0.329126,0.673591,-0.495726,0.438414,0.287202,-0.703643,0.0939903,-0.00170749,0.0180423,0.0658949,0.463676,0.931486,1.17558
1413393916255760384,-0.68131,-0.154922,3.15585,0.325154,0.668706,-0.50006,0.443899,0.329967,-0.643566,0.0907464,-0.00174612,0.0180431,0.0659766,0.470542,0.958982,1.18548
1413393916305760512,-0.66001,-0.191761,3.15814,0.320827,0.663612,-0.50668,0.447174,0.363757,-0.62072,0.0951062,-0.00179198,0.0180456,0.0660614,0.482758,0.977216,1.20687
1413393916355760384,-0.63567,-0.22872,3.16063,0.316063,0.658157,-0.515864,0.448127,0.383808,-0.581125,0.113769,-0.00186436,0.0180845,0.0661197,0.492426,0.984751,1.22586
1413393916405760512,-0.616495,-0.258822,3.16255,0.3151,0.651676,-0.527719,0.444459,0.402832,-0.573382,0.125375,-0.00183234,0.0180716,0.0661112,0.495144,0.970632,1.23473
1413393916455760384,-0.591474,-0.293696,3.16478,0.314048,0.646518,-0.538424,0.439873,0.41608,-0.523847,0.137899,-0.00195439,0.0180689,0.0661413,0.507136,0.970344,1.25934
1413393916505760512,-0.569013,-0.316913,3.17049,0.316455,0.638985,-0.550804,0.433785,0.415985,-0.479398,0.160619,-0.00194318,0.0180704,0.0661413,0.505757,0.957529,1.26087
1413393916555760384,-0.52846,-0.360009,3.17311,0.31586,0.636315,-0.560102,0.42617,0.416459,-0.443853,0.147448,-0.0023042,0.0181419,0.0662025,0.536204,0.935059,1.32284
1413393916605760512,-0.501331,-0.391196,3.18484,0.321014,0.629045,-0.573743,0.414814,0.41586,-0.446075,0.160452,-0.00231532,0.018166,0.0662101,0.53465,0.920696,1.32276
1413393916655760384,-0.477479,-0.415528,3.19433,0.324667,0.621707,-0.587914,0.403024,0.426712,-0.430178,0.20026,-0.00239307,0.0181783,0.0662326,0.538263,0.915756,1.33232
1413393916705760512,-0.455983,-0.436726,3.20604,0.329335,0.612614,-0.603973,0.389178,0.424484,-0.439183,0.200748,-0.00239974,0.0181849,0.0662359,0.537607,0.900491,1.33506
1413393916755760384,-0.433716,-0.457892,3.21595,-0.335129,-0.602515,0.619211,-0.375821,0.445116,-0.389206,0.185983,-0.00241297,0.0181871,0.0662398,0.538174,0.886213,1.34105
1413393916805760512,-0.411271,-0.47709,3.22478,-0.34373,-0.589851,0.633051,-0.364926,0.449583,-0.393226,0.149766,-0.00241411,0.0181881,0.0662405,0.537339,0.87022,1.34573
1413393916855760384,-0.388396,-0.497672,3.23258,-0.354857,-0.575926,0.645601,-0.35438,0.460353,-0.41274,0.154818,-0.0024162,0.0181878,0.0662413,0.535799,0.854128,1.35127
1413393916905760512,-0.364541,-0.518271,3.23989,-0.364735,-0.56003,0.658431,-0.346125,0.486542,-0.412147,0.139249,-0.00241623,0.0181879,0.0662415,0.532834,0.837321,1.35637
1413393916955760384,-0.340175,-0.539052,3.24719,-0.37336,-0.54226,0.671932,-0.33921,0.487037,-0.411271,0.147056,-0.00241686,0.0181875,0.0662419,0.529334,0.821077,1.36139
1413393917005760512,-0.316187,-0.560116,3.25546,-0.382126,-0.520812,0.685597,-0.335696,0.465925,-0.419675,0.176093,-0.00241673,0.0181874,0.066242,0.525815,0.805517,1.36568
1413393917055760384,-0.293179,-0.581248,3.26472,-0.390665,-0.499912,0.698287,-0.331458,0.458713,-0.409457,0.198972,-0.00241679,0.0181871,0.0662422,0.523058,0.791435,1.36933
1413393917105760512,-0.271101,-0.601825,3.27508,-0.399033,-0.479431,0.710319,-0.326138,0.430851,-0.398962,0.218032,-0.00241664,0.0181872,0.0662423,0.520987,0.778433,1.37204
1413393917155760384,-0.250509,-0.621991,3.2863,-0.408131,-0.459967,0.721291,-0.318744,0.393625,-0.393738,0.234043,-0.00241651,0.0181872,0.0662424,0.519415,0.766785,1.37405
1413393917205760512,-0.231431,-0.641434,3.29848,-0.416447,-0.441664,0.731716,-0.309994,0.370533,-0.361943,0.242655,-0.00241635,0.0181873,0.0662424,0.518187,0.756626,1.37537
1413393917255760384,-0.213482,-0.659184,3.31054,-0.421236,-0.423735,0.743368,-0.300685,0.343641,-0.345959,0.249614,-0.00241619,0.0181873,0.0662425,0.517266,0.748076,1.37597
1413393917305760512,-0.197205,-0.675554,3.32316,-0.424868,-0.408662,0.754975,-0.28722,0.309747,-0.30708,0.25234,-0.00241603,0.0181874,0.0662425,0.516684,0.741305,1.3759
1413393917355760384,-0.182526,-0.690467,3.33558,-0.427766,-0.393675,0.766593,-0.272711,0.27615,-0.284537,0.247355,-0.00241588,0.0181875,0.0662426,0.516318,0.736352,1.37529
1413393917405760512,-0.169194,-0.70435,3.34679,-0.430969,-0.376337,0.777997,-0.25953,0.253217,-0.270486,0.212011,-0.00241573,0.0181875,0.0662426,0.516046,0.732991,1.37429
1413393917455760384,-0.157069,-0.717627,3.35601,-0.434761,-0.359274,0.788821,-0.244266,0.226292,-0.26965,0.160389,-0.00241558,0.0181876,0.0662426,0.515811,0.730862,1.37315
1413393917505760512,-0.146058,-0.731024,3.36285,-0.43929,-0.342036,0.79877,-0.228038,0.214881,-0.264306,0.114782,-0.00241545,0.0181876,0.0662427,0.515619,0.729671,1.37225
1413393917555760384,-0.135639,-0.744403,3.36734,-0.442676,-0.322859,0.809168,-0.212244,0.201015,-0.269592,0.0663236,-0.00241533,0.0181876,0.0662427,0.51549,0.729053,1.37169
1413393917605760512,-0.12609,-0.758534,3.36979,-0.447898,-0.305801,0.817805,-0.19253,0.181288,-0.297722,0.026076,-0.00241522,0.0181877,0.0662427,0.515425,0.728736,1.37142
1413393917655760384,-0.11735,-0.774137,3.37023,-0.453553,-0.288616,0.825629,-0.171253,0.170209,-0.330028,-0.00522014,-0.00241513,0.0181877,0.0662427,0.515396,0.728545,1.37129
1413393917705760512,-0.108934,-0.791264,3.36913,-0.461903,-0.272215,0.830895,-0.148857,0.16593,-0.359651,-0.0402114,-0.00241506,0.0181877,0.0662428,0.515385,0.728449,1.37125
1413393917755760384,-0.10047,-0.810139,3.36653,-0.472897,-0.255052,0.833758,-0.127139,0.175627,-0.397788,-0.0637091,-0.00241502,0.0181877,0.0662428,0.515381,0.728421,1.37124
1413393917805760512,-0.0918636,-0.831674,3.36395,-0.48652,-0.237138,0.834029,-0.10705,0.179723,-0.464009,-0.0429556,-0.00241501,0.0181877,0.0662428,0.515381,0.728418,1.37124
1413393917855760384,-0.0826156,-0.856443,3.36188,-0.499624,-0.217273,0.833528,-0.0916447,0.197971,-0.520957,-0.0418231,-0.00241501,0.0181877,0.0662428,0.515381,0.728418,1.37124
1413393917905760512,-0.0721254,-0.884111,3.35984,0.509789,0.195371,-0.834118,0.0786883,0.215991,-0.587775,-0.0305985,-0.00241501,0.0181877,0.0662428,0.515381,0.728418,1.37124
1413393917955760384,-0.060174,-0.914885,3.3578,0.516439,0.173442,-0.835972,0.0660263,0.256535,-0.645879,-0.0261342,-0.00241501,0.0181877,0.0662428,0.515381,0.728418,1.37124
1413393918005760512,-0.0469107,-0.948847,3.3564,0.522403,0.150908,-0.837459,0.0546346,0.277204,-0.71224,-0.0244505,-0.00241501,0.0181877,0.0662428,0.515381,0.728418,1.37124
1413393918055760384,-0.0676778,-0.972573,3.33686,-0.497525,-0.120649,0.856976,-0.059207,0.130011,-0.727119,-0.0910491,-0.00533359,0.0259053,0.0657832,0.610593,0.763338,1.18158
1413393918105760512,-0.0521764,-1.00736,3.31526,0.500088,0.0977086,-0.859047,0.0490156,0.163116,-0.770955,-0.150729,-0.00529306,0.0248882,0.0652555,0.659648,0.763548,1.14504
1413393918155760384,-0.0447741,-1.04701,3.30746,-0.497024,-0.0761975,0.863524,-0.0385623,0.141642,-0.816216,-0.157019,-0.00529175,0.0249049,0.0652551,0.662987,0.764604,1.13975
1413393918205760512,-0.0382353,-1.08903,3.29929,-0.492547,-0.0531515,0.868143,-0.0300088,0.122334,-0.859638,-0.168558,-0.00529229,0.0249035,0.0652566,0.666377,0.765895,1.13445
1413393918255760384,-0.0333633,-1.13312,3.29058,-0.488672,-0.0333323,0.871644,-0.0180451,0.0736242,-0.902997,-0.162148,-0.00529339,0.0249057,0.0652564,0.66954,0.767144,1.12944
1413393918305760512,-0.0303815,-1.17907,3.28179,-0.484879,-0.012318,0.874462,-0.00744632,0.0408125,-0.93928,-0.175594,-0.00529373,0.0249068,0.0652566,0.672615,0.768452,1.12463
1413393918355760384,-0.0298366,-1.22692,3.27292,-0.481613,0.00775819,0.876339,0.004261,-0.0056665,-0.979053,-0.188407,-0.00529434,0.0249081,0.0652567,0.675559,0.769788,1.12008
1413393918405760512,-0.01732,-1.28692,3.25613,-0.486992,0.0246185,0.872806,0.0210144,0.00225162,-1.04856,-0.212817,-0.00486022,0.0239856,0.0646485,0.69023,0.761411,1.11116
1413393918455760384,-0.0123698,-1.34958,3.24519,-0.487048,0.0409619,0.871575,0.0382611,-0.0151629,-1.11824,-0.213828,-0.00440129,0.0236493,0.0647086,0.69674,0.757023,1.11674
1413393918505760512,-0.151747,-1.22553,3.4399,-0.482419,0.0929682,0.870925,-0.010873,-0.350034,-0.547797,0.18217,-0.00942528,0.0231888,0.0587724,0.287151,0.596149,1.05458
1413393918555760384,-0.157349,-1.29059,3.38684,-0.4854,0.120197,0.865959,0.00728629,-0.376826,-0.58748,0.0967521,-0.0111952,0.0236198,0.0579419,0.386266,0.600995,0.994061
1413393918605760512,-0.173048,-1.33431,3.41513,-0.492488,0.141239,0.858541,0.0203384,-0.388088,-0.585384,0.149118,-0.0123264,0.0233507,0.0576143,0.34442,0.590268,0.995508
1413393918655760384,-0.196862,-1.36653,3.42318,-0.495299,0.163615,0.852485,0.0343271,-0.43936,-0.561226,0.144571,-0.0123387,0.0233922,0.0573637,0.341357,0.586654,0.986299
1413393918705760512,-0.220368,-1.39512,3.4314,-0.499246,0.187936,0.84455,0.0465733,-0.462486,-0.528253,0.141828,-0.0123419,0.0233718,0.0572938,0.337812,0.581127,0.982073
1413393918755760384,-0.243972,-1.41823,3.4314,0.500908,-0.214895,-0.836432,-0.0573733,-0.465217,-0.494842,0.118959,-0.0123934,0.0232514,0.0573053,0.344801,0.572883,0.973816
1413393918805760512,-0.271917,-1.40855,3.41977,0.503735,-0.244009,-0.825941,-0.0673141,-0.489733,-0.396613,0.0984314,-0.0126171,0.0226688,0.057456,0.3615,0.545429,0.967288
1413393918855760384,-0.301656,-1.38001,3.39951,0.507799,-0.274021,-0.813221,-0.0756516,-0.510496,-0.25958,0.0844927,-0.0130567,0.0218768,0.0577114,0.386373,0.513645,0.956981
1413393918905760512,-0.351532,-1.31963,3.38364,0.512876,-0.301364,-0.798659,-0.091001,-0.511984,-0.102948,0.0496425,-0.0135376,0.0210227,0.0578192,0.395227,0.46948,0.951796
1413393918955760384,-0.378494,-1.31442,3.38794,0.51693,-0.327681,-0.782935,-0.11145,-0.506842,-0.0322409,0.075992,-0.0134322,0.0210224,0.0578237,0.391591,0.46202,0.95109
1413393919005760512,-0.408065,-1.2869,3.38924,0.51911,-0.350618,-0.768021,-0.133168,-0.471815,0.0467001,0.057229,-0.0135122,0.0208407,0.0579344,0.38849,0.446852,0.952262
1413393919055760384,-0.431537,-1.24111,3.3905,0.519235,-0.374167,-0.752564,-0.155053,-0.433378,0.134492,0.0600715,-0.0135062,0.02062,0.0581277,0.386129,0.429045,0.957393
1413393919105760512,-0.453798,-1.15902,3.38599,0.516972,-0.397172,-0.737439,-0.176571,-0.397695,0.248883,0.0556532,-0.0134946,0.0202702,0.058419,0.379823,0.403211,0.967207
1413393919155760384,-0.466379,-1.07259,3.38698,0.513601,-0.421257,-0.721508,-0.195403,-0.333465,0.35972,0.044313,-0.0133894,0.01998,0.0587449,0.374899,0.380056,0.978596
1413393919205760512,-0.458331,-1.00881,3.38719,0.512371,-0.44426,-0.703215,-0.213537,-0.251713,0.417664,0.0616195,-0.013295,0.0198797,0.0590866,0.369991,0.366685,0.990834
1413393919255760384,-0.45722,-0.946489,3.39927,0.511544,-0.466091,-0.683856,-0.231135,-0.182104,0.464256,0.0773086,-0.0132225,0.0197567,0.0592994,0.370815,0.354692,0.997474
1413393919305760512,-0.447292,-0.880929,3.41445,0.513678,-0.486699,-0.661246,-0.249021,-0.0977936,0.491302,0.0676552,-0.0131189,0.0196001,0.0595434,0.375291,0.344502,1.00342
1413393919355760384,-0.444737,-0.81358,3.42755,0.519222,-0.483053,-0.659326,-0.249712,-0.0176181,0.492675,0.0345776,-0.0130804,0.0194516,0.0597499,0.377089,0.332499,1.0076
1413393919405760512,-0.43085,-0.781998,3.42832,0.526121,-0.478259,-0.659059,-0.245164,0.0675127,0.468979,-0.0264745,-0.0132109,0.0194115,0.0599368,0.377247,0.32765,1.01087
1413393919455760384,-0.433138,-0.71617,3.43544,0.530239,-0.475378,-0.660684,-0.237397,0.137915,0.480198,-0.0735366,-0.0131633,0.0193525,0.0600612,0.379352,0.314757,1.01459
1413393919505760512,-0.413722,-0.692078,3.44003,0.531479,-0.46859,-0.668609,-0.225641,0.238898,0.474577,-0.12131,-0.0133246,0.0193375,0.0602335,0.382933,0.312013,1.01366
1413393919555760384,-0.424062,-0.604992,3.44936,0.530473,-0.484661,-0.656054,-0.230858,0.329549,0.491141,-0.143315,-0.0132734,0.0192417,0.060353,0.388825,0.295663,1.01519
1413393919605760512,-0.382868,-0.588493,3.44572,0.527187,-0.498781,-0.646546,-0.235096,0.438776,0.477612,-0.192612,-0.0133593,0.019238,0.0604849,0.394393,0.296738,1.01463
1413393919655760384,-0.357178,-0.560711,3.44225,0.524588,-0.510337,-0.636247,-0.244036,0.531655,0.478882,-0.210625,-0.0132852,0.0191112,0.060474,0.40071,0.297605,1.01144
1413393919705760512,-0.317485,-0.540426,3.42588,0.523002,-0.517392,-0.627797,-0.254254,0.630026,0.468488,-0.237902,-0.0132237,0.0191246,0.0605014,0.398526,0.296401,1.01734
1413393919755760384,-0.278472,-0.524833,3.41076,0.521742,-0.517806,-0.621811,-0.270209,0.715223,0.462028,-0.253737,-0.0132016,0.0191312,0.0605278,0.398835,0.295893,1.02168
1413393919805760512,-0.233562,-0.494672,3.38749,0.520579,-0.512956,-0.617988,-0.289767,0.804736,0.431141,-0.287632,-0.0131576,0.0191426,0.0605543,0.395476,0.292369,1.03802
1413393919855760384,-0.181332,-0.482913,3.3649,0.51417,-0.507166,-0.619641,-0.307339,0.877608,0.371003,-0.325315,-0.0131526,0.0192519,0.0605902,0.392595,0.29015,1.05191
1413393919905760512,-0.138503,-0.463514,3.34642,0.507158,-0.501458,-0.62268,-0.321869,0.934016,0.306071,-0.389991,-0.0131096,0.0192601,0.0605958,0.39358,0.289796,1.06023
1413393919955760384,-0.082701,-0.451786,3.3231,-0.499252,0.496937,0.627554,0.331626,0.978743,0.236899,-0.448424,-0.0130554,0.0193206,0.0606278,0.393559,0.289317,1.07165
1413393920005760512,-0.0380523,-0.447208,3.30123,-0.491507,0.494487,0.633538,0.335459,0.999124,0.179688,-0.485237,-0.0130599,0.0193376,0.0606425,0.396778,0.292738,1.07433
1413393920055760384,0.00870523,-0.439767,3.2788,-0.485863,0.492617,0.638722,0.336601,1.02632,0.117208,-0.526497,-0.0130698,0.0193277,0.060685,0.401051,0.297822,1.07474
1413393920105760512,0.0538988,-0.430276,3.25094,-0.482132,0.491177,0.642817,0.336274,1.03081,0.0639667,-0.567393,-0.0130579,0.0193352,0.0607038,0.403842,0.302393,1.08085
1413393920155760384,0.09818,-0.425292,3.22534,-0.478441,0.490055,0.647002,0.335153,1.04296,0.0162933,-0.598643,-0.0130627,0.0193282,0.0607492,0.409907,0.308116,1.08177
1413393920205760512,0.135385,-0.412992,3.195,-0.476589,0.488423,0.650913,0.332592,1.06025,-0.0327959,-0.641716,-0.0131014,0.0193012,0.0607993,0.414056,0.314191,1.08283
1413393920255760384,0.187368,-0.378997,3.16109,-0.479421,0.477187,0.661851,0.323113,1.06668,-0.053577,-0.632278,-0.013759,0.0194346,0.0611193,0.422641,0.324371,1.09883
1413393920305760512,0.222455,-0.55558,3.13058,-0.463187,0.508883,0.638793,0.34415,1.03734,-0.216261,-0.617731,-0.0116352,0.0191037,0.0601371,0.409242,0.322047,1.0674
