#timestamp, p_RS_R_x [m], p_RS_R_y [m], p_RS_R_z [m], q_RS_w [], q_RS_x [], q_RS_y [], q_RS_z [], v_RS_R_x [m s^-1], v_RS_R_y [m s^-1], v_RS_R_z [m s^-1], b_w_RS_S_x [rad s^-1], b_w_RS_S_y [rad s^-1], b_w_RS_S_z [rad s^-1], b_a_RS_S_x [m s^-2], b_a_RS_S_y [m s^-2], b_a_RS_S_z [m s^-2]
1413393212255760384,-1.07612,0.492468,1.32994,0.602861,-0.00175242,-0.797837,0.00340036,-0.00203336,0.00564574,0.00295741,-8.58178e-05,0.0010211,0.00356806,-3.83304e-05,1.40375e-05,1.42111e-06
1413393212305760512,-1.07618,0.492525,1.33005,0.602791,0.00800247,-0.797786,0.0107928,-0.000670865,0.00136095,0.00189229,-7.58552e-05,0.00114961,0.00397992,-0.000645427,4.43822e-05,8.03491e-05
1413393212355760384,-1.07318,0.48899,1.33025,0.602103,0.0179214,-0.798017,0.0178718,-0.00142513,-0.000131197,0.00195218,-9.33747e-05,0.00125073,0.00433844,-0.000988192,0.000189449,-0.000182901
1413393212405760512,-1.06834,0.48472,1.33004,0.602712,0.00645764,-0.797869,0.0100879,-0.00207518,0.000922874,-0.00117221,-0.000101225,0.00137117,0.00471357,-0.00231558,8.67145e-05,4.43853e-05
1413393212455760384,-1.05348,0.475568,1.33416,0.602809,0.0029957,-0.797837,0.00827303,-0.00102136,-0.00443877,-0.000786508,-0.000125113,0.00147635,0.00504302,-0.00270105,0.000168197,0.0011485
1413393212505760512,-1.07673,0.488941,1.33233,0.602935,0.0128148,-0.797548,0.0149505,-0.00117212,-0.00377876,0.000753146,-0.000125283,0.00158435,0.0054287,-0.00398444,0.000208841,-0.000923099
1413393212555760384,-1.06866,0.479509,1.33208,0.602332,0.00091559,-0.798223,0.00599736,-0.00214288,-0.00645914,-0.00274109,-0.000136953,0.00169425,0.0057789,-0.00389699,0.000498347,0.00175529
1413393212605760512,-1.07407,0.480256,1.33221,0.602122,0.00098087,-0.798382,0.00586851,-0.00238237,0.000925368,-0.00110805,-0.000143051,0.00178689,0.00610358,-0.00254154,2.11481e-05,0.0020166
1413393212655760384,-1.06723,0.475858,1.33619,0.602158,-0.000392648,-0.798364,0.00467277,-0.00269511,-0.001396,6.05535e-05,-0.000135442,0.00189568,0.00647091,-0.00308184,0.000989477,0.00257007
1413393212705760512,-1.06717,0.475517,1.33538,0.602469,-3.4485e-05,-0.798125,0.00534706,0.000729894,-0.00312059,0.0014577,-0.000141605,0.00198257,0.00681754,-0.00250851,0.00105347,0.00222082
1413393212755760384,-1.06791,0.476724,1.33584,0.602506,-0.000466796,-0.7981,0.00478956,0.00067089,0.0015652,0.00276551,-0.000159334,0.00208476,0.00717462,-0.0037862,0.000729978,0.0038348
1413393212805760512,-1.06855,0.477818,1.33571,0.602489,-0.000394461,-0.798113,0.0048003,0.000479622,-0.000991912,0.00304615,-0.000168376,0.00218215,0.00751705,-0.00399071,0.000929418,0.00366282
1413393212855760384,-1.06942,0.478222,1.3339,0.602299,-0.000639229,-0.798259,0.00428079,0.000481398,0.00243787,0.00206459,-0.000163474,0.00229212,0.00786265,-0.00559196,0.000808324,0.00352644
1413393212905760512,-1.06706,0.476958,1.33563,0.602563,-0.00293129,-0.798062,0.00263654,-0.00229981,0.0011244,5.22683e-05,-0.000180301,0.00239655,0.00817706,-0.00735197,-0.000952625,0.00628641
1413393212955760384,-1.06704,0.47656,1.33621,0.602466,-0.00298309,-0.798135,0.00263898,-0.0030844,-0.00250587,-0.00180336,-0.000189882,0.00248482,0.00852343,-0.00740293,-0.00114691,0.00579284
1413393213005760512,-1.06791,0.476773,1.33601,0.602471,-0.0028994,-0.798131,0.00261525,-0.000999529,0.000873416,-0.00113354,-0.0002073,0.00256818,0.00885346,-0.00702009,-0.00117061,0.00600194
1413393213055760384,-1.06751,0.476996,1.33509,0.602769,-0.00280258,-0.797904,0.0032448,-0.00122291,-0.000991973,-0.00238222,-0.000229229,0.00269454,0.00921846,-0.0128334,-0.00228165,0.0108644
1413393213105760512,-1.06374,0.47331,1.33597,0.602785,-0.00670815,-0.797875,-0.000341142,-0.000937656,-0.00163534,-0.00555138,-0.000245172,0.00279638,0.00953669,-0.0141301,-0.00707883,0.0092038
1413393213155760384,-1.06493,0.473783,1.33504,0.602595,-0.00589671,-0.798026,-5.41729e-05,0.000297433,0.000544331,-0.00159953,-0.000240816,0.00288575,0.00984546,-0.0133726,-0.00557227,0.00577315
1413393213205760512,-1.06552,0.474058,1.33487,0.602657,-0.00578626,-0.79798,6.5638e-05,0.00113574,0.00142918,-0.000561005,-0.000249355,0.00297805,0.0101809,-0.0138331,-0.00584689,0.0065356
1413393213255760384,-1.06681,0.475568,1.33483,0.602687,-0.0050152,-0.797962,0.000603148,0.00236218,0.000878093,0.00252238,-0.00026355,0.00306995,0.0104811,-0.0130984,-0.00544864,0.0050099
1413393213305760512,-1.07396,0.482938,1.33417,0.602723,0.00119594,-0.797929,0.00581562,0.00164795,-0.000461593,0.00276796,-0.000252231,0.00315352,0.0108092,-0.0139769,0.000791854,0.004549
1413393213355760384,-1.07117,0.480187,1.33392,0.602609,-0.00170148,-0.798026,0.00376525,0.00389394,0.004396,0.000773255,-0.000250345,0.00324196,0.0111103,-0.0136297,-5.97938e-05,0.00428829
1413393213405760512,-1.07007,0.485885,1.33852,0.601851,0.00809631,-0.798457,0.0133037,0.0029685,0.00342369,0.00443998,-0.000256524,0.00331465,0.0114175,-0.00888033,0.0249521,0.0148233
1413393213455760384,-1.07189,0.488416,1.33866,0.601758,0.00862621,-0.79851,0.0139769,0.00204829,0.000596238,0.00266123,-0.000265239,0.00338932,0.0117295,-0.00878665,0.0261343,0.0147568
1413393213505760512,-1.07202,0.489174,1.33918,0.601773,0.00863488,-0.7985,0.0138874,-0.000585182,0.000129256,0.00272267,-0.000266814,0.00348087,0.0120322,-0.00947091,0.0264214,0.0156407
1413393213555760384,-1.07155,0.488286,1.33925,0.601807,0.00854319,-0.79848,0.0136212,-0.000918551,0.000823345,0.0029387,-0.000226509,0.00355449,0.0123212,-0.00894669,0.0288202,0.0151185
1413393213605760512,-1.07167,0.488457,1.33896,0.601856,0.00834675,-0.798446,0.0135772,-0.000584856,0.0012149,0.00176981,-0.000287467,0.00361093,0.012622,-0.00732621,0.0273018,0.0159902
1413393213655760384,-1.07219,0.489111,1.3392,0.601886,0.00841165,-0.798423,0.0135136,-0.000867236,-0.00106941,-0.000192368,-0.000299417,0.00371601,0.0129461,-0.00980705,0.0288184,0.0161033
1413393213705760512,-1.07184,0.488659,1.33905,0.601921,0.00842288,-0.798396,0.0135681,-0.000818443,-0.00320113,-0.000665017,-0.000285213,0.00379232,0.0132271,-0.0113511,0.0306107,0.0142706
1413393213755760384,-1.07165,0.488499,1.339,0.601943,0.0085252,-0.798377,0.0136343,-6.13829e-05,-0.00176303,-0.00245868,-0.000286352,0.0038839,0.0135397,-0.0131996,0.0310641,0.0146572
1413393213805760512,-1.07153,0.488637,1.33872,0.602017,0.00852739,-0.798321,0.0136838,-0.000297368,-0.000983903,-0.00524272,-0.000303251,0.00397373,0.0138204,-0.0156566,0.0304528,0.0140535
1413393213855760384,-1.07136,0.488557,1.33859,0.602119,0.00848403,-0.798244,0.0136981,-0.000838203,-0.0017062,-0.00309374,-0.0003086,0.00405386,0.0141017,-0.0163216,0.0301345,0.0121556
1413393213905760512,-1.07189,0.489141,1.33856,0.602115,0.00842281,-0.798247,0.0137242,-0.000141351,-0.00400321,-0.00312481,-0.000339071,0.00413402,0.014389,-0.0163775,0.0274764,0.0174446
1413393213955760384,-1.07257,0.489737,1.3384,0.60204,0.00845285,-0.798303,0.0137518,0.000611518,-0.00463853,-0.000237236,-0.000358921,0.00420721,0.0146472,-0.0166819,0.025707,0.0190447
1413393214005760512,-1.07273,0.489528,1.33845,0.601937,0.0083998,-0.798381,0.0137387,-0.000195474,0.00904904,0.00321996,-0.000371051,0.00429842,0.0149305,-0.0184961,0.0260968,0.0201641
1413393214055760384,-1.07298,0.48986,1.33827,0.602092,0.00822406,-0.798271,0.0134772,0.00121499,0.00574678,0.00133451,-0.000379958,0.00437653,0.0152081,-0.0193587,0.0264817,0.0180372
1413393214105760512,-1.07328,0.49002,1.33838,0.60179,0.00839286,-0.798496,0.0135366,-0.000965161,0.00135214,0.0028004,-0.000383109,0.00445713,0.0154912,-0.0193083,0.0285423,0.016671
1413393214155760384,-1.0731,0.489729,1.33836,0.601988,0.00821806,-0.798351,0.0133654,0.00206098,-0.000413408,0.00143034,-0.000385478,0.00453438,0.0157694,-0.0207015,0.0291061,0.0135846
1413393214205760512,-1.07292,0.489633,1.33835,0.601951,0.0083054,-0.798375,0.0135493,0.000566068,0.00290657,0.000823974,-0.000384173,0.0046151,0.0160427,-0.0213906,0.0300738,0.0117496
1413393214255760384,-1.07283,0.489805,1.33822,0.602154,0.0081598,-0.798229,0.0132111,0.00119578,0.00266253,0.00015867,-0.000390781,0.00469781,0.016315,-0.0229783,0.0298448,0.0104262
1413393214305760512,-1.073,0.49028,1.33815,0.602162,0.00816694,-0.798219,0.0134558,0.00300526,-0.000293291,-0.00158632,-0.00039408,0.0047674,0.0165767,-0.020933,0.0297688,0.011722
1413393214355760384,-1.07292,0.490757,1.33797,0.602229,0.0082562,-0.798166,0.0135627,0.00279372,0.00432457,0.000169816,-0.00040556,0.00483659,0.0168464,-0.0202606,0.0301599,0.0100888
1413393214405760512,-1.0718,0.490005,1.33874,0.602468,0.0077192,-0.797997,0.0131579,0.00234081,0.00132918,-0.000510371,-0.000422419,0.00492267,0.017111,-0.0233513,0.0310499,0.00917189
1413393214455760384,-1.07209,0.490448,1.33886,0.602535,0.00791539,-0.79794,0.0134375,0.00067382,0.00156364,0.000673684,-0.00042118,0.00499188,0.0173695,-0.0223286,0.0322313,0.00731866
1413393214505760512,-1.07041,0.489159,1.33864,0.602685,0.00733785,-0.797841,0.0128848,-0.000543167,0.000189313,0.00240703,-0.000420537,0.00507898,0.0176297,-0.0241347,0.0338733,0.000996073
1413393214555760384,-1.06885,0.487855,1.33794,0.603063,0.00663736,-0.797566,0.0126445,-0.000734737,-0.00157599,0.000925398,-0.000441309,0.00514522,0.0178805,-0.0245074,0.0340383,-0.00518287
1413393214605760512,-1.06723,0.486404,1.33582,0.603463,0.00610341,-0.797275,0.0121729,-0.00252137,0.000638466,0.000533573,-0.000459274,0.00521712,0.0181463,-0.0258495,0.0353181,-0.0143494
1413393214655760384,-1.06749,0.486781,1.33555,0.603526,0.00608704,-0.797226,0.0122515,5.04376e-05,-0.00171031,0.0014575,-0.000474899,0.00529184,0.0184074,-0.027828,0.0339667,-0.012329
1413393214705760512,-1.06722,0.486374,1.33543,0.603538,0.00602035,-0.797218,0.0122155,-0.00104264,5.36174e-05,-0.00126274,-0.000460673,0.00536653,0.0186416,-0.0282463,0.0372289,-0.015469
1413393214755760384,-1.0678,0.487169,1.33546,0.603514,0.00613869,-0.797235,0.012259,0.000435845,-0.00140625,-0.000289235,-0.000467051,0.00543978,0.0188816,-0.0283477,0.0365418,-0.012621
1413393214805760512,-1.06766,0.486868,1.33537,0.603521,0.00627855,-0.797226,0.012451,0.000982633,-0.000717937,-0.000106004,-0.000465424,0.00551567,0.0191216,-0.0282556,0.0394845,-0.0141937
1413393214855760384,-1.06747,0.486853,1.33539,0.603519,0.00626941,-0.797228,0.0123676,0.000610829,-5.38775e-06,-0.000146541,-0.000470858,0.00557858,0.0193656,-0.0265316,0.0400878,-0.012815
1413393214905760512,-1.06762,0.487008,1.33529,0.6035,0.00626998,-0.797244,0.0123268,0.000199428,-0.00132145,-0.000260111,-0.000492834,0.00565132,0.0196131,-0.0259293,0.0376169,-0.0120673
1413393214955760384,-1.06745,0.487007,1.33536,0.603431,0.0063666,-0.797292,0.0125317,-0.000299245,-0.000181735,0.000812616,-0.000495589,0.00572343,0.0198562,-0.0265633,0.0387828,-0.0132025
1413393215005760512,-1.06688,0.486814,1.33533,0.603435,0.00647907,-0.797285,0.0126556,-0.000301903,0.000844378,0.00175345,-0.00047675,0.00579143,0.0200957,-0.0275341,0.04396,-0.0182388
1413393215055760384,-1.06651,0.486809,1.33538,0.603253,0.00636962,-0.79743,0.0123351,-0.00178923,-0.00299466,0.00326654,-0.000486288,0.00586075,0.0203331,-0.0282995,0.0452437,-0.0194755
1413393215105760512,-1.06653,0.486887,1.3354,0.603099,0.00642087,-0.797539,0.0127573,-0.00204665,-0.00873678,-0.00214341,-0.000492759,0.00592426,0.0205653,-0.0267698,0.0436704,-0.0174239
1413393215155760384,-1.06597,0.48654,1.3352,0.60323,0.00655018,-0.797438,0.0127532,-0.00132824,-0.00306383,-0.000497013,-0.000484833,0.0059744,0.0207967,-0.0247558,0.0472031,-0.0175179
1413393215205760512,-1.06497,0.485585,1.33553,0.603208,0.00628199,-0.797462,0.012446,-0.00186879,-0.0042127,-0.0025795,-0.00048168,0.00606066,0.0210311,-0.0250986,0.0468899,-0.0166713
1413393215255760384,-1.06279,0.483285,1.33563,0.603258,0.00482303,-0.797452,0.0113357,-0.00201897,-0.00412513,-0.00366463,-0.000477046,0.00610024,0.0212357,-0.0237876,0.0486314,-0.0212703
1413393215305760512,-1.06227,0.483024,1.3351,0.603156,0.00412992,-0.797541,0.0106897,-0.00375383,-0.00331389,-0.00383278,-0.000486058,0.00617164,0.0214752,-0.028808,0.0453035,-0.0173913
1413393215355760384,-1.06154,0.48181,1.3351,0.603194,0.00377229,-0.797518,0.0104221,-0.00328916,-0.00524846,-0.00425908,-0.000492058,0.00625491,0.0217332,-0.0340069,0.0424172,-0.0159405
1413393215405760512,-1.06163,0.481462,1.33516,0.602993,0.00372776,-0.79767,0.0104351,-0.00452005,-0.00291493,-0.00267763,-0.000494126,0.00631375,0.0219609,-0.035345,0.0416272,-0.0162589
1413393215455760384,-1.06171,0.481029,1.33509,0.602856,0.00372655,-0.797775,0.0103074,-0.00670159,-0.00233907,-0.000393574,-0.000507848,0.00639317,0.0221791,-0.0355026,0.0394506,-0.0170157
1413393215505760512,-1.0615,0.479899,1.33483,0.602709,0.00338377,-0.79789,0.0101284,-0.00401741,-0.00282497,-0.00183602,-0.000517025,0.00646476,0.0223792,-0.0375879,0.0412756,-0.0176096
1413393215555760384,-1.06149,0.479327,1.33484,0.602615,0.00327507,-0.797964,0.00993103,-0.00703215,-0.00407072,0.000784955,-0.000520437,0.00653315,0.022603,-0.0368935,0.0387571,-0.0150718
1413393215605760512,-1.06193,0.479156,1.33488,0.602547,0.00320348,-0.798018,0.00972858,-0.00879516,-0.00582569,0.00388924,-0.000525741,0.00661057,0.0228558,-0.0391116,0.0360172,-0.0111631
1413393215655760384,-1.06211,0.478614,1.33472,0.60234,0.00281393,-0.798175,0.00977109,-0.00812877,-0.00192198,0.00458002,-0.000542148,0.0066689,0.0230266,-0.03702,0.0389121,-0.0142336
1413393215705760512,-1.06213,0.478139,1.33477,0.601784,0.00262203,-0.798596,0.00971799,-0.00450949,-0.00451996,-0.00226148,-0.000556912,0.00674307,0.0232615,-0.0410218,0.0345913,-0.00825073
1413393215755760384,-1.06149,0.47733,1.33503,0.601253,0.00271409,-0.798998,0.00950963,-0.00168495,-0.000771855,-0.00369428,-0.000558534,0.00678639,0.0234524,-0.0380841,0.0391538,-0.0112599
1413393215805760512,-1.06107,0.476631,1.33523,0.600829,0.00252094,-0.799321,0.00920978,0.00228966,-0.00198815,0.0110762,-0.000563774,0.00682634,0.0236475,-0.0355773,0.044406,-0.015211
1413393215855760384,-1.06053,0.475846,1.33541,0.600534,0.00234218,-0.799545,0.00898936,-0.000851262,0.00127828,0.00836651,-0.000590664,0.00690392,0.0238701,-0.0386468,0.0416901,-0.0137429
1413393215905760512,-1.06002,0.474973,1.33524,0.600483,0.00205943,-0.799587,0.00877154,-0.000651932,0.000732719,0.00853126,-0.000551129,0.00694833,0.0240645,-0.0357547,0.0492364,-0.0188765
1413393215955760384,-1.05994,0.474692,1.33549,0.600433,0.0019044,-0.799621,0.00914539,0.00367672,0.00380517,0.00656074,-0.000570647,0.00699652,0.0242851,-0.0387215,0.0442705,-0.0171863
1413393216005760512,-1.05941,0.474338,1.33543,0.600546,0.00199034,-0.799542,0.00857734,0.00948169,0.00362922,0.00732641,-0.000570856,0.00708098,0.0245125,-0.0438611,0.0415512,-0.0135681
1413393216055760384,-1.05895,0.473969,1.33563,0.600593,0.00240693,-0.79951,0.00820343,0.00181452,0.00474284,0.00322051,-0.000557283,0.00710642,0.0247024,-0.0483802,0.048879,-0.0145264
1413393216105760512,-1.0588,0.47427,1.33564,0.600517,0.00229575,-0.799565,0.00843852,0.000816376,0.00417658,-0.00711727,-0.000568088,0.00718568,0.0248883,-0.0439639,0.047408,-0.0154725
1413393216155760384,-1.0589,0.474134,1.33557,0.600957,0.00242029,-0.799236,0.00819989,-0.000680638,0.00195838,-0.00400957,-0.000561697,0.00724698,0.0250901,-0.0443306,0.0477663,-0.012271
1413393216205760512,-1.0589,0.474083,1.33563,0.600741,0.00247164,-0.799398,0.00822923,-0.00324255,0.00467476,-0.00688747,-0.000584807,0.00730906,0.0253184,-0.0441208,0.0442866,-0.00678071
1413393216255760384,-1.05928,0.474256,1.33576,0.599745,0.00238086,-0.800144,0.00834432,-0.0111602,0.00398122,-0.000873281,-0.000575402,0.00736002,0.0255037,-0.0433229,0.0462705,-0.00540919
1413393216305760512,-1.06007,0.474488,1.33572,0.598647,0.00237407,-0.800965,0.00843135,-0.00856448,-0.0041585,-0.00232445,-0.000594939,0.00743774,0.025736,-0.0482021,0.0404737,0.00239264
1413393216355760384,-1.0602,0.474187,1.33556,0.598234,0.00189603,-0.801275,0.00849106,-0.00110065,0.00203803,-0.00479727,-0.000631999,0.00749484,0.0258882,-0.0520789,0.0400524,0.00432776
1413393216405760512,-1.06016,0.473879,1.33548,0.597749,0.00191525,-0.801636,0.00854411,-0.00119634,-0.0103221,-0.00759156,-0.000638582,0.00759016,0.0260657,-0.0514654,0.0362256,0.00526403
1413393216455760384,-1.06016,0.473421,1.33608,0.597833,0.00223798,-0.801576,0.00819117,-0.00579101,-0.005197,0.011365,-0.000666863,0.00758255,0.0262626,-0.0484826,0.0388504,0.00781705
1413393216505760512,-1.0604,0.473244,1.33627,0.595994,0.00181037,-0.80295,0.00764119,0.00182295,0.00581605,0.0124734,-0.000648348,0.00763852,0.0264595,-0.0479999,0.0437818,0.0139898
1413393216555760384,-1.06055,0.473603,1.33675,0.595319,0.00114096,-0.803459,0.00688611,0.000376503,0.00990758,-0.0194261,-0.00067275,0.00773198,0.0266102,-0.0454467,0.0457135,0.0164248
1413393216605760512,-1.06083,0.47447,1.33693,0.594659,-0.000170366,-0.803947,0.00710674,0.000189538,0.0196096,-0.0121062,-0.000674752,0.00776565,0.0268154,-0.0450693,0.0455409,0.0215231
1413393216655760384,-1.06002,0.47232,1.34303,0.595881,-0.00627913,-0.803047,0.00176851,-0.000350697,0.00627277,0.0231053,-0.000691954,0.00783425,0.0269785,-0.0520686,0.0390449,0.0185145
1413393216705760512,-1.05678,0.469039,1.34492,0.596384,-0.00877339,-0.802648,-0.00254908,0.0175796,0.0197771,0.0348313,-0.00069329,0.00792122,0.0271795,-0.0544679,0.0498756,0.0166118
1413393216755760384,-1.0573,0.47042,1.34564,0.59611,-0.00893463,-0.802828,-0.00639222,0.0106677,0.0173472,0.0471241,-0.000710366,0.00796145,0.0273445,-0.0494851,0.0408527,0.0303159
1413393216805760512,-1.05939,0.472874,1.34988,0.595994,-0.00871531,-0.802889,-0.00925478,0.0163443,0.00694494,0.0863505,-0.000716386,0.007981,0.0275018,-0.0430557,0.0379209,0.0439205
1413393216855760384,-1.06249,0.475425,1.36346,0.595693,-0.00841644,-0.803083,-0.0117451,0.0254087,0.00761451,0.0925528,-0.000782875,0.00808076,0.0276825,-0.0403553,0.0252935,0.0727653
1413393216905760512,-1.06252,0.477444,1.37427,0.596388,-0.0090667,-0.802521,-0.0141549,0.0379444,-0.00575136,0.130225,-0.000769563,0.00809845,0.0278857,-0.0214745,0.0346882,0.0976843
1413393216955760384,-1.06102,0.480002,1.36496,0.595206,-0.00902164,-0.803326,-0.0177818,0.0482328,-0.00637505,0.146803,-0.000749232,0.00813615,0.0280709,-0.00934481,0.0467673,0.119618
1413393217005760512,-1.05984,0.481687,1.36411,0.59328,-0.0097901,-0.80468,-0.0203522,0.0626782,-0.014952,0.165584,-0.000762356,0.00819514,0.028213,-0.00137773,0.0539392,0.14235
1413393217055760384,-1.05592,0.480466,1.37246,0.590879,-0.0108709,-0.806393,-0.0218045,0.0692636,-0.0372772,0.231752,-0.000763384,0.00827167,0.0284102,0.000221704,0.0526211,0.150733
1413393217105760512,-1.05017,0.476578,1.385,0.589595,-0.013503,-0.807237,-0.02377,0.0818479,-0.0419447,0.279625,-0.00076581,0.00831798,0.0285935,0.00139168,0.0569167,0.157366
1413393217155760384,-1.04506,0.473092,1.39992,0.587804,-0.0151252,-0.8085,-0.0241812,0.0882145,-0.0632413,0.281894,-0.000788123,0.00834481,0.0287682,0.0020713,0.0567547,0.165381
1413393217205760512,-1.03898,0.467894,1.41492,0.587087,-0.0173916,-0.808937,-0.025456,0.0997817,-0.0770623,0.266418,-0.000756379,0.00842732,0.0289524,-0.00778806,0.0618127,0.154901
1413393217255760384,-1.03183,0.461567,1.4281,0.587623,-0.0184871,-0.808458,-0.0274676,0.102651,-0.0869357,0.245583,-0.000772151,0.00841009,0.0290786,-0.00721626,0.064528,0.149491
1413393217305760512,-1.02523,0.455517,1.43944,0.587257,-0.0195115,-0.808635,-0.029299,0.112805,-0.104992,0.205419,-0.000791052,0.00849211,0.029268,-0.0126835,0.0650387,0.143938
1413393217355760384,-1.01796,0.448605,1.4482,0.586323,-0.0202263,-0.809275,-0.0298461,0.121111,-0.125668,0.170245,-0.000790573,0.00851795,0.0294014,-0.0140508,0.0621235,0.149999
1413393217405760512,-1.01218,0.44163,1.45803,0.584934,-0.0206313,-0.810225,-0.0310161,0.136815,-0.132538,0.157402,-0.000811231,0.0085755,0.0295989,-0.0145407,0.0552914,0.163484
1413393217455760384,-1.00455,0.432948,1.46597,0.583992,-0.0214137,-0.810866,-0.0314715,0.145629,-0.157044,0.141554,-0.000841377,0.00869842,0.0297638,-0.0213138,0.0546847,0.162069
1413393217505760512,-0.998665,0.424186,1.47097,0.58323,-0.0209806,-0.811394,-0.0322961,0.14551,-0.180834,0.130378,-0.000847418,0.00873333,0.029925,-0.0170121,0.0389939,0.178417
1413393217555760384,-0.991154,0.414787,1.47609,0.582892,-0.0216334,-0.811581,-0.0332677,0.165735,-0.182632,0.109194,-0.000884112,0.00877738,0.0300567,-0.00899029,0.0385152,0.186002
1413393217605760512,-0.982721,0.403946,1.48305,0.582775,-0.0212385,-0.811638,-0.03416,0.165564,-0.215145,0.0918813,-0.000883173,0.00884286,0.0302176,-0.00971265,0.0388347,0.191076
1413393217655760384,-0.973668,0.39278,1.4866,0.582726,-0.0214536,-0.811666,-0.0342076,0.176994,-0.219293,0.10072,-0.000885834,0.00891153,0.030354,-0.00940963,0.0404958,0.191335
1413393217705760512,-0.96198,0.377944,1.49165,0.583376,-0.0221955,-0.811143,-0.035043,0.181497,-0.236683,0.145438,-0.000894879,0.00897085,0.0304855,-0.00671633,0.0439916,0.170895
1413393217755760384,-0.951027,0.363602,1.49761,0.584127,-0.0225476,-0.810599,-0.0348735,0.188866,-0.26447,0.192496,-0.00085945,0.00901092,0.0306125,-0.00271184,0.055909,0.151022
1413393217805760512,-0.941168,0.349145,1.50604,0.584315,-0.0230058,-0.810455,-0.0347946,0.197165,-0.269409,0.226144,-0.000845811,0.00906507,0.0307654,-0.00223719,0.0475599,0.144188
1413393217855760384,-0.930785,0.33405,1.52024,0.584803,-0.024155,-0.810082,-0.0344861,0.204972,-0.283996,0.249806,-0.000905815,0.00909319,0.0309701,-0.00597749,0.0414868,0.14574
1413393217905760512,-0.919415,0.316832,1.5315,0.585327,-0.0245335,-0.809703,-0.0342269,0.203104,-0.312142,0.286847,-0.000877859,0.00913988,0.0311497,-0.00925193,0.0437167,0.131124
1413393217955760384,-0.908811,0.300408,1.54615,0.586147,-0.0249004,-0.809097,-0.0342705,0.212164,-0.316298,0.305066,-0.000850948,0.00918593,0.0313374,-0.0104215,0.0407407,0.125704
1413393218005760512,-0.897847,0.282671,1.56087,0.585982,-0.0260686,-0.80922,-0.0332939,0.216421,-0.339644,0.279362,-0.000895632,0.00922409,0.0314833,-0.00799922,0.0409216,0.121483
1413393218055760384,-0.886724,0.264644,1.57282,0.586567,-0.0280248,-0.808845,-0.0303915,0.21852,-0.352906,0.22379,-0.000816505,0.00925411,0.0316463,-0.0118971,0.0558237,0.113266
1413393218105760512,-0.875024,0.246346,1.58331,0.586392,-0.0308958,-0.808977,-0.0273244,0.222848,-0.345013,0.192165,-0.000827346,0.00929664,0.031809,-0.0157458,0.0520505,0.106832
1413393218155760384,-0.862717,0.227376,1.58922,0.586704,-0.0347942,-0.808749,-0.0222,0.226294,-0.362976,0.138787,-0.000844498,0.00936832,0.0319782,-0.0256564,0.054749,0.0942
1413393218205760512,-0.851012,0.209174,1.59518,0.587197,-0.0386097,-0.808362,-0.0161439,0.238902,-0.357861,0.0877219,-0.000823149,0.00939813,0.0321314,-0.0237183,0.0439133,0.103886
1413393218255760384,-0.838046,0.191235,1.59893,0.586603,-0.0434886,-0.808642,-0.0101933,0.259273,-0.325088,0.039379,-0.000839734,0.00945108,0.0322795,-0.0246358,0.0429998,0.0981696
1413393218305760512,-0.825491,0.173842,1.59831,0.585422,-0.0470001,-0.809344,-0.00583971,0.250303,-0.328484,0.00309384,-0.000865813,0.00951204,0.0324709,-0.0299966,0.0345728,0.103761
1413393218355760384,-0.812752,0.15762,1.59589,0.585215,-0.0467584,-0.809509,-0.00568479,0.258198,-0.303629,-0.0360442,-0.000857833,0.00958356,0.0325759,-0.0268093,0.0278232,0.102002
1413393218405760512,-0.799183,0.141782,1.59343,0.586057,-0.0445336,-0.808975,-0.0107062,0.264048,-0.269449,-0.060193,-0.000850517,0.00963335,0.0327139,-0.0282803,0.0221453,0.0942596
1413393218455760384,-0.785748,0.126003,1.59271,0.585929,-0.0414276,-0.809138,-0.0163597,0.262971,-0.278035,-0.0867023,-0.000887418,0.0096932,0.0328749,-0.0295603,0.0152851,0.106572
1413393218505760512,-0.772371,0.110993,1.58919,0.586597,-0.037687,-0.808699,-0.0221347,0.271003,-0.261188,-0.0776005,-0.000871351,0.00972781,0.0330297,-0.0334898,-0.00435396,0.102076
1413393218555760384,-0.758637,0.0962688,1.58879,0.586793,-0.0347283,-0.808501,-0.0281993,0.282551,-0.242424,-0.0721947,-0.000899288,0.00978095,0.0331679,-0.0343924,-0.0183338,0.102383
1413393218605760512,-0.744754,0.0825263,1.58599,0.587539,-0.0321311,-0.807924,-0.0320042,0.285939,-0.269335,-0.0616542,-0.000927068,0.00979277,0.0333212,-0.0311689,-0.0263382,0.0976884
1413393218655760384,-0.730302,0.0685303,1.58165,0.587976,-0.0302485,-0.807572,-0.0346028,0.300145,-0.259399,-0.0589096,-0.000859577,0.00982033,0.0334762,-0.0276068,-0.0170992,0.0863645
1413393218705760512,-0.715455,0.0546421,1.57897,0.587873,-0.0308106,-0.807599,-0.0352312,0.308817,-0.256347,-0.0429765,-0.000894994,0.00981583,0.0335431,-0.0181365,-0.0149308,0.0995766
1413393218755760384,-0.700247,0.0404367,1.57667,0.586211,-0.0297561,-0.808804,-0.0361477,0.3103,-0.285733,-0.0376522,-0.000883962,0.00983763,0.0337232,-0.0181239,-0.0139963,0.108627
1413393218805760512,-0.684779,0.0258192,1.57385,0.581911,-0.0305627,-0.811929,-0.0348954,0.321707,-0.274903,-0.0340604,-0.00088234,0.00990444,0.0338932,-0.0225544,-0.0191862,0.109241
1413393218855760384,-0.669305,0.0112327,1.5715,0.575119,-0.0343168,-0.816753,-0.031229,0.317287,-0.276188,-0.025097,-0.000864091,0.00991019,0.0340203,-0.0155683,-0.0192275,0.109769
1413393218905760512,-0.654387,-0.00384393,1.56962,0.568105,-0.0367554,-0.821671,-0.027623,0.299996,-0.290289,-0.024848,-0.000870927,0.00998176,0.0341926,-0.0233803,-0.0262009,0.114363
1413393218955760384,-0.640178,-0.0183361,1.56688,0.562204,-0.0387069,-0.825708,-0.0252034,0.280905,-0.267533,-0.00238015,-0.00085432,0.0100642,0.0343532,-0.0274731,-0.0278016,0.109009
1413393219005760512,-0.627501,-0.0324489,1.56598,0.558348,-0.0407433,-0.828261,-0.0239245,0.250082,-0.25869,0.0151509,-0.000850321,0.010079,0.0344881,-0.0195472,-0.0328846,0.11079
1413393219055760384,-0.61659,-0.0468598,1.56653,0.556407,-0.0417901,-0.829564,-0.0221243,0.215368,-0.260926,0.0340074,-0.000868971,0.0101501,0.034613,-0.0141428,-0.0396221,0.11023
1413393219105760512,-0.606824,-0.0608109,1.56914,0.556674,-0.0412885,-0.829399,-0.0225122,0.192072,-0.242819,0.0636337,-0.00086304,0.0101577,0.0347369,-0.00554147,-0.0443944,0.108225
1413393219155760384,-0.598269,-0.0736848,1.57389,0.55787,-0.0417792,-0.82859,-0.0217692,0.166945,-0.232821,0.071951,-0.000858431,0.0101957,0.0348761,-0.00133961,-0.0416426,0.111239
1413393219205760512,-0.59088,-0.086237,1.5774,0.55865,-0.0412283,-0.828094,-0.0217046,0.143036,-0.230747,0.0886721,-0.000841464,0.0102341,0.0350045,0.00145181,-0.0403644,0.112451
1413393219255760384,-0.584321,-0.0980787,1.58285,0.560263,-0.0405834,-0.82704,-0.0215139,0.124346,-0.216659,0.112064,-0.000802653,0.0102439,0.0351648,0.00465716,-0.0377647,0.114739
1413393219305760512,-0.579222,-0.109159,1.58922,0.561429,-0.0399395,-0.826287,-0.0212729,0.0950036,-0.196217,0.118129,-0.000827922,0.0103021,0.0353063,0.000498726,-0.0470818,0.125394
1413393219355760384,-0.575185,-0.119332,1.5941,0.561738,-0.0394331,-0.826112,-0.0208704,0.0601053,-0.189578,0.12364,-0.000830418,0.0103139,0.0354225,-0.00116366,-0.0460137,0.12112
1413393219405760512,-0.573033,-0.129365,1.59998,0.56234,-0.0396268,-0.825724,-0.0195808,0.0356967,-0.1723,0.11495,-0.00083094,0.0103572,0.0355557,-0.00786109,-0.0505366,0.116707
1413393219455760384,-0.571968,-0.137514,1.60413,0.563516,-0.0393162,-0.824935,-0.0196636,0.000590015,-0.151369,0.0655071,-0.000830642,0.0104245,0.0357137,-0.0177476,-0.0519014,0.117747
1413393219505760512,-0.565924,-0.107433,1.62906,0.563973,-0.0322091,-0.825073,-0.0123707,-0.019257,-0.144975,0.0234178,-0.000963629,0.0104825,0.0358541,-0.00990294,-0.0112666,0.125391
1413393219555760384,-0.567962,-0.111879,1.63214,0.565484,-0.0314364,-0.824076,-0.0117493,-0.0409708,-0.13262,-0.00821842,-0.000984072,0.0104747,0.0358979,0.00321653,-0.013877,0.13491
1413393219605760512,-0.571552,-0.106152,1.62956,0.566878,-0.0290984,-0.823232,-0.00961781,-0.0456848,-0.120927,-0.00843029,-0.00102979,0.0105862,0.0361075,-0.00531702,0.00581648,0.128996
1413393219655760384,-0.574909,-0.109027,1.62628,0.568809,-0.028556,-0.82193,-0.00853728,-0.0564556,-0.114118,0.0272361,-0.00102676,0.0106169,0.0362348,-0.00330793,0.0189407,0.125635
1413393219705760512,-0.577404,-0.112493,1.63048,0.57136,-0.0277226,-0.820182,-0.00900541,-0.0707921,-0.0981842,0.0885095,-0.00105563,0.0106773,0.0363822,-0.00895702,0.0240814,0.128271
1413393219755760384,-0.578012,-0.117978,1.63576,0.574093,-0.02627,-0.818313,-0.00953998,-0.0945952,-0.0900242,0.16072,-0.00107304,0.0107427,0.0364778,-0.00432626,0.0333032,0.141201
1413393219805760512,-0.588029,-0.115723,1.6464,0.576844,-0.0242261,-0.816418,-0.0112512,-0.0809106,-0.0818595,0.212117,-0.00106158,0.0107816,0.0366174,-0.00574347,0.0412824,0.135794
1413393219855760384,-0.590896,-0.116413,1.65742,0.577684,-0.0237454,-0.81584,-0.0110704,-0.0784977,-0.0713359,0.319399,-0.00108693,0.0108351,0.0367569,-0.00362869,0.0673762,0.154777
1413393219905760512,-0.594154,-0.117212,1.67517,0.578764,-0.022325,-0.815103,-0.0118833,-0.0800243,-0.0707462,0.337818,-0.00106456,0.0108607,0.036858,0.00889645,0.073731,0.146284
1413393219955760384,-0.592151,-0.105519,1.6981,0.580212,-0.0177956,-0.814222,-0.00901172,-0.0820752,-0.0625713,0.335627,-0.0010942,0.0109216,0.0370165,0.00371915,0.118307,0.149825
1413393220005760512,-0.595241,-0.109832,1.71161,0.581439,-0.0184485,-0.813333,-0.00888495,-0.073718,-0.0654727,0.296275,-0.00112492,0.0109592,0.0371445,0.0117754,0.113433,0.159218
1413393220055760384,-0.60579,-0.10565,1.73491,0.581585,-0.0131948,-0.813317,-0.0100695,-0.0533345,-0.0733955,0.243168,-0.00114385,0.0109928,0.0372225,0.0218512,0.0648583,0.18012
1413393220105760512,-0.60869,-0.11001,1.74777,0.582227,-0.0136016,-0.812844,-0.0105577,-0.0474781,-0.0706003,0.220596,-0.00112802,0.011008,0.0373345,0.0246474,0.0660441,0.176345
1413393220155760384,-0.611215,-0.112081,1.75913,0.582385,-0.0131547,-0.812735,-0.0108439,-0.0379235,-0.0802054,0.202729,-0.0011487,0.0110207,0.0374764,0.0265733,0.0771147,0.193963
1413393220205760512,-0.613694,-0.116901,1.77049,0.582928,-0.012855,-0.812336,-0.011855,-0.035169,-0.085144,0.225505,-0.00115104,0.0110638,0.0375551,0.0200259,0.0676469,0.192918
1413393220255760384,-0.616519,-0.123583,1.78386,0.583328,-0.0137907,-0.812022,-0.0126427,-0.0272992,-0.0816197,0.225025,-0.00112827,0.0111083,0.0376689,0.0117154,0.0603501,0.198097
1413393220305760512,-0.617697,-0.128876,1.79359,0.583718,-0.0131495,-0.811731,-0.0138944,-0.0138801,-0.101239,0.230021,-0.00117774,0.0111772,0.0378079,0.00516081,0.0693484,0.213778
1413393220355760384,-0.61764,-0.138917,1.80231,0.584392,-0.0141998,-0.811214,-0.0147053,-0.00750301,-0.101999,0.233409,-0.00113014,0.0111744,0.0378994,-0.000423077,0.0570307,0.208215
1413393220405760512,-0.617915,-0.145147,1.81195,0.584332,-0.0147359,-0.811242,-0.0150132,0.00231283,-0.0954169,0.246478,-0.0011255,0.0112432,0.0380203,-0.00954659,0.0566225,0.216108
1413393220455760384,-0.618179,-0.150859,1.82553,0.583658,-0.0148654,-0.811717,-0.0154539,0.0161733,-0.112543,0.239754,-0.00116136,0.0112891,0.038148,-0.0134283,0.0606508,0.222536
1413393220505760512,-0.61791,-0.157893,1.83546,0.581853,-0.0156096,-0.813001,-0.015265,0.0207145,-0.113949,0.225663,-0.00112252,0.0113319,0.0382599,-0.0212142,0.0538273,0.221938
1413393220555760384,-0.616983,-0.165533,1.84487,0.580185,-0.016764,-0.814166,-0.0154478,0.0343036,-0.108462,0.18797,-0.00111426,0.0113403,0.0383651,-0.0228007,0.0525344,0.219575
1413393220605760512,-0.615465,-0.172235,1.85274,0.579256,-0.0172363,-0.814814,-0.0156385,0.0292597,-0.121297,0.13181,-0.00113743,0.0113963,0.0384888,-0.0295185,0.051713,0.222124
1413393220655760384,-0.614697,-0.180432,1.85689,0.579884,-0.0173101,-0.814359,-0.0159654,0.0313212,-0.125457,0.0788821,-0.00111631,0.0114156,0.0385864,-0.0300881,0.045381,0.221108
1413393220705760512,-0.613286,-0.188143,1.85873,0.580382,-0.0184689,-0.813977,-0.0160315,0.0470736,-0.111105,0.0296556,-0.00111788,0.0114401,0.038668,-0.0308667,0.0369356,0.228599
1413393220755760384,-0.611618,-0.195589,1.86024,0.580039,-0.0204349,-0.814213,-0.0139599,0.039203,-0.135192,-0.0202843,-0.00114853,0.0115059,0.0387831,-0.0407902,0.0271385,0.216695
1413393220805760512,-0.609807,-0.202316,1.85897,0.577859,-0.0229646,-0.815749,-0.0102401,0.0473322,-0.126702,-0.0126879,-0.00112752,0.0115465,0.0389088,-0.0380337,0.0299617,0.215342
1413393220855760384,-0.607951,-0.210177,1.86015,0.576279,-0.0266518,-0.816788,-0.00706584,0.0514714,-0.099148,0.0391082,-0.00113175,0.0116201,0.0389978,-0.0384383,0.0204365,0.215821
1413393220905760512,-0.605857,-0.216879,1.86407,0.57521,-0.0282856,-0.817502,-0.0050105,0.056152,-0.120078,0.094069,-0.00115193,0.011603,0.0391063,-0.026789,0.0353213,0.231741
1413393220955760384,-0.604117,-0.223194,1.87171,0.574053,-0.0293408,-0.818282,-0.00421901,0.0449734,-0.0899662,0.201131,-0.00111571,0.0116305,0.0391786,-0.0217802,0.0368426,0.229807
1413393221005760512,-0.602446,-0.227377,1.88331,0.574482,-0.0302538,-0.817938,-0.00579612,0.0378323,-0.0494914,0.228286,-0.00112378,0.0116797,0.0393115,-0.0214806,0.0363063,0.24361
1413393221055760384,-0.601051,-0.231218,1.89563,0.573824,-0.0309535,-0.818364,-0.00702544,0.0298448,-0.0563919,0.258518,-0.00113583,0.0117054,0.0393962,-0.0203666,0.024003,0.219353
1413393221105760512,-0.599817,-0.235814,1.90799,0.572847,-0.0313778,-0.819025,-0.0078299,0.0185249,-0.0283682,0.270468,-0.00113688,0.0117505,0.0395001,-0.0328506,0.00628269,0.207892
1413393221155760384,-0.599926,-0.237296,1.91909,0.572178,-0.0320078,-0.819452,-0.00933081,0.0174861,-0.00249314,0.285069,-0.00117429,0.0118124,0.0396345,-0.0373433,-0.0023836,0.225502
1413393221205760512,-0.600743,-0.238934,1.94239,0.570752,-0.0321227,-0.820421,-0.0109658,0.00371453,-0.0148712,0.288706,-0.00117669,0.0118159,0.0396939,-0.0301267,0.011615,0.239317
1413393221255760384,-0.600709,-0.240376,1.95091,0.56925,-0.032027,-0.821458,-0.0116666,0.00666727,-5.36142e-05,0.284205,-0.00114463,0.0118796,0.0398082,-0.0311287,0.0141646,0.232197
1413393221305760512,-0.601515,-0.242123,1.96646,0.56734,-0.0315147,-0.822747,-0.0148438,0.00631103,0.0144644,0.270635,-0.00115485,0.0119294,0.0399292,-0.0253974,0.0123502,0.237502
1413393221355760384,-0.600213,-0.238541,1.96129,0.565462,-0.0318383,-0.82403,-0.0146334,-0.012188,0.00330577,0.307404,-0.00114749,0.011906,0.0400376,-0.0114541,0.0317181,0.240557
1413393221405760512,-0.601613,-0.23788,1.97524,0.563691,-0.0312179,-0.825243,-0.0159047,-0.0327822,0.021539,0.310731,-0.00113693,0.0120103,0.0401525,-0.017476,0.0304834,0.238559
1413393221455760384,-0.603693,-0.237515,1.9844,0.563047,-0.0305575,-0.825649,-0.0186869,-0.052693,0.0461825,0.291526,-0.00117467,0.0120557,0.0402573,-0.00900515,0.030123,0.235204
1413393221505760512,-0.607166,-0.222847,2.05384,0.561249,-0.029009,-0.826959,-0.0172671,-0.0682223,0.0426259,0.229853,-0.00120218,0.0121118,0.0404072,0.00124098,0.0626328,0.266566
1413393221555760384,-0.610953,-0.21954,2.06707,0.560161,-0.0269812,-0.827709,-0.0197482,-0.0741931,0.0463874,0.182079,-0.00118096,0.0121514,0.0405159,0.00536839,0.0710726,0.263277
1413393221605760512,-0.615539,-0.216284,2.07776,0.560001,-0.025764,-0.827817,-0.021315,-0.0974465,0.0408171,0.163381,-0.00121912,0.0121808,0.0406201,0.0153215,0.0827957,0.26701
1413393221655760384,-0.620985,-0.214519,2.084,0.560328,-0.0247969,-0.8276,-0.0222724,-0.116714,0.0189934,0.165916,-0.00119905,0.0122512,0.0407316,0.015895,0.08586,0.264943
1413393221705760512,-0.627176,-0.213136,2.09116,0.563205,-0.0240868,-0.825648,-0.0229379,-0.124583,0.0223033,0.176157,-0.00118129,0.0123113,0.0408526,0.0227328,0.0926177,0.273611
1413393221755760384,-0.633592,-0.211909,2.09967,0.566718,-0.0243434,-0.823251,-0.022267,-0.131831,0.0125268,0.167674,-0.00120837,0.0123333,0.0409263,0.0324704,0.0915532,0.279542
1413393221805760512,-0.640287,-0.210567,2.10569,0.569945,-0.0235165,-0.821061,-0.0216546,-0.135404,-0.00589659,0.171054,-0.00120621,0.0123336,0.0410189,0.0437385,0.0989359,0.293081
1413393221855760384,-0.646999,-0.209929,2.11386,0.57188,-0.0225963,-0.819738,-0.0217394,-0.13431,0.0096098,0.160642,-0.00120903,0.0123716,0.0411463,0.0435244,0.0904289,0.29595
1413393221905760512,-0.654099,-0.20989,2.12302,0.572997,-0.0228808,-0.818973,-0.0208531,-0.136852,-0.0126419,0.147438,-0.00122959,0.0124362,0.0412519,0.0432305,0.0942461,0.289826
1413393221955760384,-0.661016,-0.210255,2.13082,0.574472,-0.0226221,-0.817989,-0.0190652,-0.133888,-0.0173003,0.122738,-0.00123006,0.0124676,0.0413632,0.0407231,0.0958399,0.289531
1413393222005760512,-0.667539,-0.211045,2.13545,0.57444,-0.0227248,-0.818017,-0.0187244,-0.126302,-0.0050718,0.0692208,-0.00121088,0.0125368,0.0414822,0.0378729,0.0970941,0.290169
1413393222055760384,-0.673748,-0.211847,2.13725,0.575147,-0.0228067,-0.817538,-0.0178464,-0.119352,-0.025806,0.00893646,-0.00125019,0.0125444,0.0416169,0.045341,0.0906148,0.308408
1413393222105760512,-0.679547,-0.212918,2.13671,0.575809,-0.0225246,-0.81711,-0.0163942,-0.117501,-0.0366598,-0.0542408,-0.00122245,0.0125935,0.0416834,0.0391787,0.100494,0.297523
1413393222155760384,-0.685105,-0.214238,2.1323,0.575861,-0.021891,-0.817093,-0.0162479,-0.105606,-0.0226672,-0.111267,-0.00117464,0.0126606,0.0417838,0.0243015,0.124785,0.267512
1413393222205760512,-0.690221,-0.215567,2.12523,0.575733,-0.0216082,-0.817197,-0.0159726,-0.0942524,-0.0308834,-0.170215,-0.00118959,0.0126135,0.0418285,0.0504841,0.110086,0.285436
1413393222255760384,-0.694737,-0.217309,2.11422,0.574573,-0.0213634,-0.818036,-0.0150512,-0.0853796,-0.0389868,-0.222668,-0.00118094,0.0126793,0.0419618,0.0448142,0.110883,0.284994
1413393222305760512,-0.699048,-0.218332,2.10382,0.572176,-0.020557,-0.819731,-0.0152484,-0.0837497,-0.0217107,-0.253374,-0.00119773,0.0127031,0.0420835,0.0485971,0.104693,0.29107
1413393222355760384,-0.70345,-0.219506,2.09102,0.568,-0.0207919,-0.82263,-0.0149683,-0.088352,-0.0330171,-0.250835,-0.00119344,0.0127367,0.0421751,0.049363,0.103739,0.288279
1413393222405760512,-0.708054,-0.221008,2.08017,0.563822,-0.0205178,-0.825522,-0.0140444,-0.0955397,-0.0397443,-0.229331,-0.00118633,0.0127717,0.0422356,0.0564326,0.112168,0.278119
1413393222455760384,-0.713402,-0.222642,2.07075,0.560361,-0.0194592,-0.827877,-0.0153932,-0.103861,-0.0330522,-0.202216,-0.00119302,0.0127958,0.0423494,0.0521644,0.110652,0.283888
1413393222505760512,-0.719425,-0.224739,2.05877,0.557543,-0.0192391,-0.829798,-0.014534,-0.132625,-0.0507328,-0.17303,-0.00121523,0.0128648,0.0424561,0.0452727,0.0962879,0.297312
1413393222555760384,-0.726213,-0.227482,2.04984,0.556499,-0.0212233,-0.830498,-0.01149,-0.146594,-0.0599404,-0.112374,-0.001232,0.0128655,0.0424915,0.0504669,0.0950163,0.307599
1413393222605760512,-0.734493,-0.23095,2.04739,0.555024,-0.0208657,-0.831497,-0.0112225,-0.171374,-0.0471356,-0.0846787,-0.00123757,0.0129587,0.0426445,0.0484439,0.0956783,0.301857
1413393222655760384,-0.743597,-0.233962,2.04433,0.553783,-0.0214067,-0.832323,-0.0102425,-0.197805,-0.0491065,-0.0267691,-0.00124673,0.0129948,0.0427371,0.0456738,0.0924628,0.300346
1413393222705760512,-0.753964,-0.235674,2.04275,0.553976,-0.0199549,-0.83222,-0.0110604,-0.222702,-0.0482505,0.0216354,-0.00124295,0.0129993,0.0428158,0.0535442,0.095381,0.286341
1413393222755760384,-0.765126,-0.237213,2.04402,0.552624,-0.0205344,-0.833123,-0.0096164,-0.248684,-0.0392025,0.0532163,-0.00125062,0.0130278,0.0428798,0.0419464,0.107978,0.293133
1413393222805760512,-0.777799,-0.238422,2.04682,0.550849,-0.0208652,-0.834299,-0.0087223,-0.275532,-0.037187,0.102249,-0.00122941,0.0131007,0.0429801,0.0357808,0.119962,0.287997
1413393222855760384,-0.791703,-0.239981,2.0522,0.548883,-0.0209164,-0.835602,-0.00776694,-0.289984,-0.0330436,0.131942,-0.00125463,0.0131485,0.0430665,0.0327259,0.117779,0.277744
1413393222905760512,-0.806643,-0.240523,2.05977,0.547846,-0.0209707,-0.836296,-0.005924,-0.312478,-0.0266969,0.174016,-0.00124042,0.0131718,0.0431524,0.0435881,0.129504,0.276276
1413393222955760384,-0.822923,-0.240538,2.07185,0.546193,-0.0204987,-0.837396,-0.00463205,-0.344165,-0.0223008,0.219575,-0.00124139,0.0131851,0.0432587,0.0452408,0.145775,0.280671
1413393223005760512,-0.840802,-0.24058,2.0862,0.547337,-0.0192474,-0.836678,-0.00465649,-0.363844,-0.0190377,0.229615,-0.0012406,0.0131857,0.0433576,0.0522971,0.153678,0.285799
1413393223055760384,-0.85966,-0.240135,2.09674,0.549386,-0.0183224,-0.835361,-0.0035512,-0.398286,-0.0197225,0.248955,-0.0012526,0.0132267,0.0434562,0.0529492,0.163409,0.28372
1413393223105760512,-0.879972,-0.239816,2.1092,0.551227,-0.017939,-0.83416,-0.00233589,-0.427006,-0.0101045,0.248639,-0.00124439,0.0132722,0.0435464,0.0523053,0.17123,0.287318
1413393223155760384,-0.901621,-0.238951,2.1229,0.552723,-0.0167637,-0.833191,-0.0030941,-0.455037,-0.0120856,0.251357,-0.00123342,0.0133045,0.043593,0.0549391,0.184809,0.289641
1413393223205760512,-0.924178,-0.238862,2.13404,0.554449,-0.0147344,-0.832077,-0.00419082,-0.473519,-0.0210229,0.253814,-0.0012419,0.0133278,0.0437336,0.0426947,0.189887,0.291815
1413393223255760384,-0.94749,-0.2383,2.14459,0.555419,-0.0136065,-0.831445,-0.00493934,-0.488975,-0.0154431,0.210206,-0.00125292,0.013355,0.0437914,0.0371831,0.196438,0.286447
1413393223305760512,-0.971439,-0.237607,2.15481,0.557107,-0.0135449,-0.83032,-0.0041834,-0.501107,-0.0330865,0.170215,-0.00126275,0.0133815,0.0438804,0.0308805,0.210963,0.288199
1413393223355760384,-0.996343,-0.237921,2.15974,0.558143,-0.0128241,-0.829632,-0.00469837,-0.508862,-0.0402274,0.0862715,-0.00126358,0.0134281,0.0439673,0.0293687,0.219663,0.28053
1413393223405760512,-1.02138,-0.239624,2.16164,0.55985,-0.0123824,-0.828487,-0.00487416,-0.508511,-0.0476042,-0.0129744,-0.00124989,0.0134978,0.0440694,0.02585,0.223703,0.285501
1413393223455760384,-1.04675,-0.240573,2.15951,0.561846,-0.0123009,-0.827133,-0.00549835,-0.512559,-0.0547141,-0.126032,-0.00126622,0.013481,0.0441324,0.0286515,0.226923,0.287481
1413393223505760512,-1.07227,-0.243285,2.15004,0.564563,-0.0114498,-0.825285,-0.00647103,-0.512877,-0.0614671,-0.221908,-0.00125774,0.0135446,0.0442479,0.0188961,0.231316,0.291623
1413393223555760384,-1.09722,-0.246122,2.13481,0.567274,-0.0121619,-0.823414,-0.00649706,-0.516899,-0.0709825,-0.297694,-0.00124787,0.01358,0.0442966,0.0200368,0.232293,0.295087
1413393223605760512,-1.12264,-0.248737,2.12043,0.569896,-0.01293,-0.821582,-0.00734533,-0.504189,-0.0703028,-0.365866,-0.00126767,0.0135858,0.0444136,0.0222385,0.223693,0.294996
1413393223655760384,-1.14721,-0.251708,2.10375,0.572008,-0.0134742,-0.820091,-0.00872906,-0.504004,-0.0770095,-0.397381,-0.00129105,0.0135991,0.0444656,0.0272399,0.227441,0.298162
1413393223705760512,-1.17189,-0.255378,2.08352,0.572865,-0.0150794,-0.819456,-0.00956452,-0.499993,-0.0861388,-0.373574,-0.00128247,0.0136159,0.0445375,0.0249103,0.233219,0.286823
1413393223755760384,-1.19657,-0.260832,2.0653,0.573664,-0.0161665,-0.818857,-0.0110092,-0.501886,-0.0955765,-0.303947,-0.00123079,0.0137493,0.0448054,-0.00688004,0.264066,0.265306
1413393223805760512,-1.22097,-0.266732,2.05155,0.574613,-0.0179579,-0.81814,-0.0120267,-0.492791,-0.114079,-0.247022,-0.00118641,0.0136715,0.044777,0.0191628,0.255989,0.264455
1413393223855760384,-1.24505,-0.273478,2.04454,0.573385,-0.0195093,-0.818947,-0.0132118,-0.47095,-0.121975,-0.151672,-0.00117112,0.0135893,0.0447811,0.0434812,0.243074,0.272581
1413393223905760512,-1.26844,-0.280618,2.03741,0.57378,-0.020187,-0.8186,-0.0162167,-0.488299,-0.121046,-0.0887508,-0.00113728,0.0135987,0.0448874,0.0377196,0.240466,0.261707
1413393223955760384,-1.29213,-0.286698,2.03477,0.573309,-0.0212757,-0.818878,-0.0174313,-0.483093,-0.135874,-0.0356671,-0.000982324,0.0137743,0.0451976,-0.0021314,0.293727,0.227166
1413393224005760512,-1.31593,-0.294074,2.03092,0.574123,-0.0225369,-0.818255,-0.0182971,-0.48166,-0.146907,-0.00686076,-0.000947284,0.0137881,0.0452276,0.00870811,0.285922,0.235712
1413393224055760384,-1.33975,-0.302345,2.0285,0.573499,-0.0244601,-0.818631,-0.0185404,-0.484884,-0.161876,-0.018501,-0.000970747,0.0138224,0.0452797,0.012855,0.259067,0.252066
1413393224105760512,-1.36393,-0.311145,2.02511,0.574618,-0.0263843,-0.817782,-0.0187096,-0.483203,-0.194437,-0.0658325,-0.000989733,0.0138518,0.0453428,0.0179939,0.240848,0.264477
1413393224155760384,-1.38797,-0.321887,2.02172,0.575249,-0.0275707,-0.817279,-0.0196052,-0.483896,-0.215351,-0.0958907,-0.000970486,0.0139299,0.045432,0.00983105,0.225729,0.272539
1413393224205760512,-1.41304,-0.333593,2.02584,0.575122,-0.0267147,-0.817348,-0.0215443,-0.474549,-0.232234,-0.162134,-0.000971103,0.0139658,0.045537,0.0178925,0.206742,0.283278
1413393224255760384,-1.43679,-0.346624,2.01421,0.576195,-0.0271147,-0.816528,-0.0233587,-0.472637,-0.240138,-0.191969,-0.00103238,0.0140407,0.0456134,0.00708862,0.179551,0.283814
1413393224305760512,-1.4603,-0.35934,2.00066,0.57763,-0.0282623,-0.81546,-0.0238899,-0.463313,-0.252386,-0.249976,-0.00101874,0.0140727,0.0457576,0.00783828,0.171248,0.27595
1413393224355760384,-1.48371,-0.372263,1.98843,0.577741,-0.0274835,-0.815363,-0.0253792,-0.464775,-0.256592,-0.296919,-0.00101989,0.014082,0.0457846,0.00704145,0.162019,0.268381
1413393224405760512,-1.50655,-0.384784,1.97322,0.577137,-0.029222,-0.81568,-0.0269398,-0.449839,-0.249641,-0.339314,-0.00105609,0.0141403,0.0458785,0.00262131,0.163653,0.258912
1413393224455760384,-1.52807,-0.397,1.95597,0.578113,-0.0329538,-0.814825,-0.0275804,-0.424976,-0.251176,-0.386687,-0.00100504,0.0141852,0.0459824,0.0122897,0.171105,0.238078
1413393224505760512,-1.54893,-0.408691,1.9358,0.578367,-0.0380035,-0.814388,-0.028638,-0.393579,-0.237682,-0.436445,-0.000997649,0.0142105,0.0460493,0.0138651,0.178171,0.242156
1413393224555760384,-1.56785,-0.420262,1.91477,0.57833,-0.0454696,-0.814032,-0.0286216,-0.373357,-0.232396,-0.470446,-0.000986712,0.0142907,0.046131,0.00288409,0.183671,0.228712
1413393224605760512,-1.58575,-0.431414,1.89075,0.579399,-0.0530755,-0.812765,-0.0298884,-0.35623,-0.221751,-0.48847,-0.000941415,0.0143672,0.0462731,0.0142641,0.186813,0.225193
1413393224655760384,-1.6032,-0.442011,1.86834,0.579492,-0.061483,-0.812046,-0.0314779,-0.353095,-0.203033,-0.442086,-0.000925644,0.0143671,0.0463038,0.037886,0.176719,0.222368
1413393224705760512,-1.62019,-0.451736,1.84392,0.577375,-0.0698366,-0.812805,-0.0333063,-0.342541,-0.210295,-0.431638,-0.00095638,0.0144108,0.0463852,0.0480449,0.171343,0.240393
1413393224755760384,-1.63615,-0.460481,1.82789,0.57506,-0.0784471,-0.813597,-0.0348011,-0.351072,-0.196676,-0.410708,-0.00102707,0.0144089,0.0464512,0.0613701,0.154025,0.272542
1413393224805760512,-1.65231,-0.46723,1.81334,0.57207,-0.0866593,-0.814708,-0.0384386,-0.323213,-0.179875,-0.388067,-0.00108231,0.014459,0.0465299,0.0707242,0.155264,0.309182
1413393224855760384,-1.66818,-0.474341,1.80161,0.569439,-0.0948787,-0.815488,-0.0414269,-0.322497,-0.189894,-0.337511,-0.0011256,0.0145128,0.0466129,0.0844226,0.153488,0.317012
1413393224905760512,-1.68495,-0.481659,1.79071,0.568055,-0.10046,-0.815599,-0.0449435,-0.328271,-0.175447,-0.27954,-0.00112729,0.0145546,0.0466987,0.0989359,0.14784,0.340647
1413393224955760384,-1.70049,-0.488941,1.78013,0.565902,-0.106427,-0.81617,-0.0479118,-0.298344,-0.151284,-0.217687,-0.00114581,0.0145837,0.0467903,0.105911,0.145901,0.340483
1413393225005760512,-1.71534,-0.49726,1.76853,0.564171,-0.109476,-0.816709,-0.0520937,-0.300273,-0.158174,-0.146609,-0.00115191,0.0145465,0.0468416,0.129168,0.144085,0.360074
1413393225055760384,-1.7306,-0.504441,1.76176,0.562288,-0.110964,-0.817532,-0.0562272,-0.292967,-0.137211,-0.132581,-0.00113057,0.0145757,0.0469491,0.125274,0.143581,0.372987
1413393225105760512,-1.74627,-0.511318,1.75668,0.561158,-0.113074,-0.817768,-0.059764,-0.278907,-0.104118,-0.0619241,-0.00116742,0.0145382,0.0470038,0.139275,0.129533,0.38912
1413393225155760384,-1.76067,-0.516589,1.75355,0.56076,-0.114405,-0.817655,-0.0624554,-0.264937,-0.11526,-0.0779917,-0.00116315,0.0145368,0.0470812,0.131683,0.11473,0.369073
1413393225205760512,-1.77401,-0.521347,1.7502,0.56005,-0.116502,-0.817846,-0.0624561,-0.253659,-0.098493,-0.0662362,-0.00121525,0.0145071,0.0471777,0.141266,0.0900823,0.368791
1413393225255760384,-1.78618,-0.525705,1.74506,0.559155,-0.117364,-0.818197,-0.0642304,-0.23626,-0.0854172,-0.0604032,-0.00121949,0.0145151,0.0471813,0.117813,0.105234,0.359797
1413393225305760512,-1.79823,-0.529802,1.74081,0.558199,-0.119298,-0.818492,-0.0652139,-0.234648,-0.0899561,-0.0895549,-0.00122037,0.0145126,0.0472872,0.118349,0.114069,0.367486
1413393225355760384,-1.81027,-0.533156,1.73629,0.558103,-0.122051,-0.817947,-0.0677368,-0.220525,-0.0668332,-0.0692595,-0.00120761,0.014536,0.0473715,0.105971,0.120601,0.367552
1413393225405760512,-1.82198,-0.536607,1.73403,0.557273,-0.128101,-0.817483,-0.0689907,-0.227822,-0.0517077,-0.0471827,-0.00120903,0.0145027,0.0474271,0.119553,0.108393,0.373166
1413393225455760384,-1.83324,-0.538511,1.73192,0.556281,-0.135285,-0.816842,-0.0708419,-0.240399,-0.0362096,-0.0316967,-0.00124646,0.0146263,0.047464,0.080239,0.100558,0.337371
1413393225505760512,-1.84457,-0.53906,1.73001,0.556203,-0.144519,-0.815109,-0.0731476,-0.229808,0.0068306,-0.0157805,-0.00119172,0.0146854,0.0475536,0.0685246,0.123939,0.334029
1413393225555760384,-1.85646,-0.537663,1.72855,0.55441,-0.154938,-0.814086,-0.0767357,-0.232495,0.0372125,-8.03601e-05,-0.00116304,0.014712,0.0476347,0.0609794,0.132402,0.328674
1413393225605760512,-1.86928,-0.534797,1.72785,0.553445,-0.166302,-0.812056,-0.0812933,-0.26226,0.0742914,0.0386936,-0.00114978,0.0147367,0.0476585,0.0573695,0.127357,0.3189
1413393225655760384,-1.88231,-0.530125,1.73003,0.552867,-0.177689,-0.809398,-0.0874031,-0.256657,0.105013,0.0568245,-0.00113747,0.0147702,0.0477126,0.0489397,0.127708,0.308414
1413393225705760512,-1.89518,-0.524766,1.73371,0.551814,-0.189773,-0.806466,-0.0953972,-0.256503,0.12525,0.0847808,-0.00112136,0.0147896,0.0477539,0.043014,0.125583,0.30826
1413393225755760384,-1.90859,-0.518627,1.73871,0.550498,-0.19984,-0.80357,-0.106262,-0.267333,0.135287,0.0910626,-0.00113304,0.0148294,0.047822,0.0352178,0.114677,0.316111
1413393225805760512,-1.92179,-0.510988,1.74429,0.549225,-0.209686,-0.800256,-0.118215,-0.255087,0.171085,0.116135,-0.0011436,0.0148569,0.047876,0.0397627,0.1015,0.310252
1413393225855760384,-1.93462,-0.502785,1.74811,0.546771,-0.218872,-0.797122,-0.133171,-0.248237,0.178571,0.0558665,-0.00115303,0.0148221,0.0478943,0.0561813,0.0902545,0.315451
1413393225905760512,-1.94748,-0.494481,1.74518,0.545389,-0.228323,-0.793063,-0.146526,-0.248682,0.174966,-0.0370125,-0.00117955,0.0148019,0.0479437,0.0697132,0.0718863,0.31507
1413393225955760384,-1.96142,-0.486507,1.74331,0.542347,-0.236691,-0.789827,-0.161276,-0.254863,0.178536,-0.140057,-0.00123053,0.0147822,0.0479858,0.0750778,0.0441123,0.328273
1413393226005760512,-1.9749,-0.478649,1.73696,0.540472,-0.245119,-0.785639,-0.17487,-0.249277,0.172419,-0.211323,-0.00129609,0.0147151,0.048016,0.0945493,0.0202256,0.336637
1413393226055760384,-1.98814,-0.470772,1.72671,0.538764,-0.254961,-0.781048,-0.186258,-0.247013,0.164676,-0.229487,-0.00131906,0.0147599,0.0481228,0.0701337,0.0184759,0.354416
1413393226105760512,-1.99978,-0.463252,1.71588,0.53716,-0.265836,-0.776667,-0.193853,-0.239514,0.141179,-0.226418,-0.00130531,0.0147977,0.048164,0.0554166,0.0420318,0.332771
1413393226155760384,-2.01179,-0.456304,1.70563,0.536238,-0.276435,-0.771995,-0.200143,-0.232854,0.141449,-0.19579,-0.00131293,0.0148403,0.0482509,0.0416553,0.0362681,0.350127
1413393226205760512,-2.02318,-0.449368,1.6976,0.534724,-0.286379,-0.767917,-0.205819,-0.223635,0.120828,-0.138423,-0.00131351,0.0149026,0.0483715,0.0308952,0.0388517,0.351146
1413393226255760384,-2.03448,-0.442982,1.69233,0.533118,-0.295766,-0.764666,-0.208792,-0.232746,0.125342,-0.0728443,-0.00132073,0.0149397,0.0484576,0.0279959,0.0316941,0.35694
1413393226305760512,-2.04576,-0.436676,1.68909,0.531843,-0.303685,-0.761671,-0.211606,-0.209262,0.12186,-0.0558983,-0.00132304,0.0149836,0.0485296,0.0256792,0.0271955,0.348083
1413393226355760384,-2.05671,-0.430534,1.6881,0.529489,-0.311928,-0.760024,-0.211439,-0.219658,0.113854,-0.0121498,-0.00133649,0.0150169,0.0485913,0.0293252,0.0285117,0.34256
1413393226405760512,-2.06758,-0.425205,1.68688,0.525665,-0.317973,-0.759919,-0.212352,-0.216832,0.110838,-0.0131604,-0.0013224,0.0150771,0.048684,0.0319861,0.0306708,0.345692
1413393226455760384,-2.07902,-0.419947,1.68432,0.521267,-0.323771,-0.760594,-0.212018,-0.229582,0.110237,-0.0324938,-0.00131761,0.0151138,0.0487457,0.0391993,0.0237874,0.344693
1413393226505760512,-2.09164,-0.414754,1.6827,0.517548,-0.328517,-0.761233,-0.211532,-0.248398,0.116324,-0.0783707,-0.00131966,0.0151025,0.0487973,0.0501691,0.0200793,0.344092
1413393226555760384,-2.10476,-0.4087,1.67745,0.515016,-0.33271,-0.761399,-0.210559,-0.251394,0.12473,-0.115035,-0.00129547,0.0151253,0.0488776,0.0496272,0.0176486,0.329965
1413393226605760512,-2.11769,-0.40216,1.67146,0.512313,-0.335945,-0.761964,-0.209971,-0.247269,0.144556,-0.145161,-0.00131487,0.0151635,0.0489376,0.0518435,0.00132327,0.330729
1413393226655760384,-2.13044,-0.394845,1.66338,0.510676,-0.337389,-0.762125,-0.211058,-0.258137,0.165772,-0.132504,-0.00132221,0.0151791,0.0489994,0.0605997,-0.00850416,0.328142
1413393226705760512,-2.14388,-0.385845,1.6569,0.510438,-0.334674,-0.762,-0.216341,-0.271781,0.188758,-0.132979,-0.00132526,0.0151995,0.049071,0.0624023,-0.00361118,0.329674
1413393226755760384,-2.15788,-0.375978,1.65057,0.511399,-0.331633,-0.760996,-0.222209,-0.271546,0.21333,-0.116633,-0.00132538,0.0152189,0.0491229,0.0641361,-0.00791738,0.327006
1413393226805760512,-2.17242,-0.36575,1.64371,0.511305,-0.32832,-0.760976,-0.227352,-0.297946,0.206542,-0.104821,-0.00129424,0.0152507,0.0492022,0.0582364,-0.0084677,0.318992
1413393226855760384,-2.18765,-0.355436,1.63776,0.511478,-0.325294,-0.761133,-0.230762,-0.302979,0.211803,-0.1269,-0.00128935,0.0152637,0.049246,0.06933,-0.0093487,0.316292
1413393226905760512,-2.20331,-0.345159,1.6321,0.510805,-0.322222,-0.76173,-0.234563,-0.312475,0.213237,-0.111639,-0.00126576,0.0152626,0.0493107,0.072976,-0.00754701,0.309038
1413393226955760384,-2.21972,-0.335173,1.628,0.510591,-0.320512,-0.762091,-0.236194,-0.336648,0.207803,-0.0940436,-0.00124569,0.0152696,0.0493758,0.0760673,-0.0117159,0.307038
1413393227005760512,-2.23734,-0.32519,1.6212,0.510542,-0.31877,-0.762542,-0.237196,-0.346985,0.208322,-0.090733,-0.00124276,0.0152777,0.0494307,0.0758444,-0.0200187,0.300237
1413393227055760384,-2.25561,-0.315259,1.61533,0.511497,-0.318243,-0.762123,-0.237193,-0.365294,0.205424,-0.0824665,-0.00122882,0.0152971,0.0495014,0.0703144,-0.0265767,0.295382
1413393227105760512,-2.2743,-0.305791,1.61065,0.513393,-0.317805,-0.761137,-0.23685,-0.378528,0.191947,-0.084049,-0.00122871,0.0153162,0.0495579,0.0695824,-0.0318353,0.290737
1413393227155760384,-2.29423,-0.297103,1.6068,0.515384,-0.318865,-0.759907,-0.235044,-0.390993,0.187055,-0.0700751,-0.00121643,0.0153295,0.0496209,0.0710106,-0.0345302,0.291265
1413393227205760512,-2.31401,-0.288684,1.60385,0.517428,-0.319611,-0.758807,-0.233087,-0.39857,0.18441,-0.0509188,-0.00120105,0.0153171,0.0496876,0.071074,-0.0420101,0.288313
1413393227255760384,-2.33455,-0.28006,1.6002,0.52022,-0.322061,-0.756887,-0.229717,-0.400456,0.184787,-0.0281391,-0.00120516,0.0153316,0.0497278,0.0686051,-0.0511942,0.287236
1413393227305760512,-2.35494,-0.271689,1.59852,0.520479,-0.323699,-0.756492,-0.228124,-0.39535,0.180706,-0.0356779,-0.00116209,0.0153021,0.0497627,0.0753248,-0.0398511,0.263034
1413393227355760384,-2.3755,-0.263453,1.59854,0.521644,-0.324769,-0.755451,-0.227393,-0.393197,0.177616,-0.025334,-0.00113967,0.0153649,0.0498496,0.0637522,-0.047623,0.267732
1413393227405760512,-2.39532,-0.254742,1.59751,0.52133,-0.326263,-0.755409,-0.226108,-0.387078,0.186256,-0.0199575,-0.00115924,0.0153579,0.0499319,0.0560764,-0.0667908,0.270978
1413393227455760384,-2.41469,-0.245613,1.5957,0.521519,-0.327906,-0.754969,-0.224761,-0.385228,0.191814,-0.0207886,-0.00117463,0.0153746,0.0499823,0.0568785,-0.0720411,0.27235
1413393227505760512,-2.434,-0.23612,1.59518,0.521668,-0.328792,-0.754591,-0.224393,-0.382754,0.19347,-0.0258334,-0.00120954,0.0154105,0.0500308,0.0410944,-0.0956848,0.275603
1413393227555760384,-2.45262,-0.225952,1.59517,0.52264,-0.330912,-0.752961,-0.22449,-0.372102,0.205472,-0.0204934,-0.00122697,0.0154854,0.0500843,0.0325006,-0.0940803,0.277194
1413393227605760512,-2.47146,-0.216253,1.59627,0.523338,-0.333927,-0.750887,-0.22534,-0.361402,0.211814,-0.0160167,-0.00121231,0.0155186,0.0501687,0.0304592,-0.0862148,0.26715
1413393227655760384,-2.48911,-0.205516,1.59631,0.522837,-0.337316,-0.749108,-0.22737,-0.347944,0.227704,-0.00540231,-0.00122131,0.01553,0.0502067,0.0313598,-0.0943537,0.251048
1413393227705760512,-2.50526,-0.193377,1.59657,0.521325,-0.34242,-0.747154,-0.229631,-0.328534,0.243182,-0.00445289,-0.00120873,0.0155708,0.050266,0.0320624,-0.076373,0.250853
1413393227755760384,-2.52084,-0.18051,1.59693,0.520105,-0.348616,-0.744288,-0.232367,-0.30703,0.253194,-0.00851012,-0.00121293,0.0155844,0.0503323,0.0330568,-0.0694076,0.238598
1413393227805760512,-2.53575,-0.168245,1.59702,0.517906,-0.353944,-0.741768,-0.237229,-0.286286,0.259291,-0.01848,-0.00118887,0.0156147,0.0503904,0.0307737,-0.0612391,0.244202
1413393227855760384,-2.54944,-0.15513,1.59702,0.516872,-0.361985,-0.737558,-0.240457,-0.264195,0.278126,-0.0148694,-0.00119043,0.0156145,0.0504415,0.0311687,-0.0639868,0.238546
1413393227905760512,-2.56213,-0.141266,1.59674,0.514778,-0.369438,-0.733761,-0.245182,-0.257704,0.28569,0.000306521,-0.0011689,0.015601,0.0505208,0.0403674,-0.0622304,0.224426
1413393227955760384,-2.57444,-0.127062,1.59616,0.513527,-0.377622,-0.728651,-0.250519,-0.238933,0.292306,-0.00381582,-0.00116393,0.0156225,0.0505659,0.0378596,-0.0668876,0.231259
1413393228005760512,-2.58617,-0.111976,1.59495,0.510869,-0.386995,-0.723585,-0.256267,-0.219015,0.30744,-0.0240235,-0.00118942,0.0156227,0.0506209,0.0446411,-0.0732063,0.227128
1413393228055760384,-2.59751,-0.096845,1.5938,0.507446,-0.395585,-0.718487,-0.264173,-0.22294,0.312335,-0.0364019,-0.00117448,0.0156474,0.050706,0.0422355,-0.0790454,0.218733
1413393228105760512,-2.6086,-0.0812409,1.59196,0.504228,-0.405035,-0.71296,-0.270904,-0.214031,0.322468,-0.0158203,-0.00116199,0.015674,0.0507545,0.0405109,-0.0853108,0.210755
1413393228155760384,-2.61933,-0.0651386,1.59069,-0.499143,0.413947,0.708319,0.278905,-0.196519,0.325912,-0.0417518,-0.00118904,0.0156887,0.0508143,0.0313112,-0.100874,0.209942
1413393228205760512,-2.62913,-0.0485362,1.58901,-0.494375,0.423166,0.70371,0.285161,-0.1956,0.328063,-0.0341179,-0.001196,0.01574,0.0508818,0.018593,-0.103583,0.206046
1413393228255760384,-2.63876,-0.0319882,1.58892,-0.489489,0.429671,0.700183,0.292451,-0.182493,0.333118,-0.0275062,-0.00122298,0.0158018,0.0509529,0.0118833,-0.114283,0.223125
1413393228305760512,-2.64763,-0.0149535,1.58717,-0.485298,0.435727,0.696562,0.299047,-0.173514,0.338206,-0.022684,-0.00123379,0.0158519,0.0510267,0.00158745,-0.114884,0.217392
1413393228355760384,-2.65608,0.00238158,1.58652,-0.48147,0.441116,0.693134,0.305235,-0.170275,0.345958,-0.0102095,-0.00128155,0.0158683,0.0510665,0.00496496,-0.129264,0.18348
1413393228405760512,-2.66425,0.0202383,1.58684,-0.47759,0.446599,0.689425,0.31169,-0.151756,0.356686,-0.00269627,-0.00126233,0.0158997,0.0511448,0.00734951,-0.125773,0.193641
1413393228455760384,-2.67191,0.0384604,1.58629,-0.474287,0.452931,0.684883,0.317556,-0.146073,0.367742,0.00844643,-0.00128483,0.0159473,0.0512114,0.00623373,-0.122947,0.216184
1413393228505760512,-2.67958,0.0571127,1.58676,-0.472449,0.458058,0.67976,0.323885,-0.154396,0.367446,0.0146798,-0.00129634,0.0159909,0.0512828,0.00863165,-0.129703,0.225317
1413393228555760384,-2.6868,0.0757004,1.5884,-0.470296,0.463888,0.674795,0.329063,-0.131276,0.372724,0.0178612,-0.00131375,0.0160516,0.0513777,-0.000885383,-0.141204,0.220501
1413393228605760512,-2.6931,0.094586,1.5889,-0.466596,0.470092,0.670863,0.333533,-0.13194,0.373135,0.0284116,-0.00137481,0.0160919,0.0514668,-0.00147471,-0.152142,0.216061
1413393228655760384,-2.69972,0.113313,1.59108,-0.464115,0.475594,0.667291,0.336347,-0.142766,0.369634,0.0358264,-0.00131027,0.0160582,0.0514941,0.0186313,-0.127204,0.214265
1413393228705760512,-2.70621,0.131826,1.59351,-0.460729,0.479847,0.665164,0.339164,-0.128038,0.376226,0.032114,-0.00138407,0.0160885,0.0515761,0.0204461,-0.158273,0.192344
1413393228755760384,-2.71241,0.150768,1.59482,-0.458011,0.483755,0.663384,0.340778,-0.136487,0.376441,0.039988,-0.00147418,0.0161813,0.0515977,0.00602478,-0.168451,0.209659
1413393228805760512,-2.71884,0.169902,1.59903,-0.45543,0.488341,0.662644,0.339131,-0.140753,0.380702,0.0236264,-0.00148717,0.0161989,0.0516619,0.0159043,-0.164361,0.21582
1413393228855760384,-2.72557,0.189122,1.60037,-0.452745,0.492491,0.66217,0.337648,-0.127229,0.375615,0.0119483,-0.00149979,0.0162221,0.0517351,0.0211294,-0.157403,0.224098
1413393228905760512,-2.73144,0.207903,1.5994,-0.449322,0.496548,0.662939,0.334758,-0.121563,0.381234,0.0124289,-0.00150996,0.0162463,0.0517715,0.0156358,-0.145537,0.221974
1413393228955760384,-2.73729,0.227436,1.5993,-0.447945,0.498628,0.662892,0.333601,-0.121967,0.393634,-0.00338347,-0.00151147,0.016266,0.0518237,0.0210123,-0.143336,0.225317
1413393229005760512,-2.74239,0.248082,1.59933,-0.445872,0.498264,0.66376,0.335194,-0.105612,0.422295,0.0025469,-0.00153592,0.0163278,0.0518865,0.0155448,-0.144127,0.227811
1413393229055760384,-2.74766,0.270014,1.59851,-0.443207,0.495651,0.665459,0.339206,-0.117538,0.448501,-0.0261961,-0.00151756,0.0163967,0.0519749,0.0108453,-0.126167,0.220696
1413393229105760512,-2.75292,0.292993,1.59745,-0.442391,0.492259,0.666401,0.343338,-0.119073,0.462338,-0.0518097,-0.00145144,0.0164201,0.052009,0.0138983,-0.0976187,0.231465
1413393229155760384,-2.75801,0.316267,1.59716,-0.441211,0.489116,0.6676,0.346999,-0.122055,0.463811,-0.0395405,-0.0015048,0.0164833,0.0520464,0.00582004,-0.105586,0.234624
1413393229205760512,-2.76485,0.339376,1.59553,-0.440375,0.486128,0.668696,0.350137,-0.151773,0.462715,-0.0690286,-0.00150388,0.0165287,0.0521047,0.00805917,-0.105404,0.236885
1413393229255760384,-2.77292,0.362402,1.59174,-0.439787,0.483023,0.669976,0.352716,-0.172495,0.459617,-0.0839821,-0.00148491,0.0165864,0.0521771,0.0101204,-0.104001,0.235699
1413393229305760512,-2.78105,0.38566,1.58818,-0.440079,0.480581,0.670462,0.354758,-0.184362,0.456991,-0.0925059,-0.00151315,0.0166347,0.0522485,0.0113134,-0.111654,0.234635
1413393229355760384,-2.79051,0.408615,1.58341,-0.44113,0.478766,0.670581,0.355681,-0.223201,0.458189,-0.108376,-0.00143241,0.0166356,0.0523218,0.0276833,-0.0716346,0.227365
1413393229405760512,-2.8008,0.431664,1.57819,-0.443353,0.477953,0.670042,0.355026,-0.242145,0.455261,-0.120913,-0.00150811,0.016707,0.052361,0.0160081,-0.100801,0.228063
1413393229455760384,-2.81335,0.454371,1.57227,-0.447274,0.478773,0.668017,0.352812,-0.256342,0.447655,-0.119212,-0.00152219,0.0167373,0.0523909,0.0195834,-0.102805,0.235009
1413393229505760512,-2.82704,0.47679,1.56598,-0.451509,0.480531,0.665901,0.349005,-0.281901,0.437757,-0.12411,-0.00150081,0.0167723,0.0524653,0.0284483,-0.100036,0.241966
1413393229555760384,-2.84167,0.498528,1.56192,-0.453975,0.482829,0.664714,0.344874,-0.286999,0.436422,-0.11445,-0.00150811,0.0166912,0.0525079,0.0505381,-0.108034,0.249432
1413393229605760512,-2.85605,0.520219,1.55417,-0.45608,0.485991,0.663521,0.339918,-0.271566,0.440922,-0.10965,-0.00150624,0.0166585,0.0525792,0.0668741,-0.108137,0.253669
1413393229655760384,-2.87011,0.541975,1.54793,-0.45661,0.488956,0.663545,0.334869,-0.278625,0.438194,-0.112747,-0.0014883,0.0166536,0.0526279,0.0767429,-0.106725,0.256338
1413393229705760512,-2.88387,0.563979,1.54188,-0.455279,0.490735,0.664809,0.331555,-0.261824,0.450092,-0.105562,-0.00149669,0.0166329,0.0526966,0.0850689,-0.111703,0.263549
1413393229755760384,-2.8972,0.586604,1.53613,-0.453856,0.492291,0.666095,0.328605,-0.260807,0.454607,-0.093578,-0.00150341,0.0166247,0.0527742,0.0977688,-0.117402,0.264481
1413393229805760512,-2.91022,0.609361,1.53197,-0.451144,0.49418,0.668089,0.325443,-0.25288,0.469414,-0.0823541,-0.00147399,0.0166104,0.0527923,0.101195,-0.115854,0.252705
1413393229855760384,-2.92337,0.633386,1.52767,-0.447769,0.495584,0.670591,0.322811,-0.240692,0.482183,-0.068479,-0.0014266,0.016543,0.0528615,0.116064,-0.107587,0.261797
1413393229905760512,-2.93569,0.657407,1.52447,-0.445119,0.496671,0.67254,0.320747,-0.237668,0.490671,-0.0550124,-0.00138333,0.0165879,0.0528924,0.109908,-0.105713,0.259319
1413393229955760384,-2.94775,0.682495,1.52246,-0.443307,0.496197,0.674202,0.320499,-0.240544,0.519958,-0.0452549,-0.00132301,0.0166537,0.0529362,0.0994088,-0.0988005,0.260667
1413393230005760512,-2.9594,0.708869,1.521,-0.441407,0.494139,0.675922,0.322671,-0.232105,0.547106,-0.00259498,-0.00132127,0.0166323,0.052995,0.0997974,-0.107754,0.262527
1413393230055760384,-2.97144,0.73655,1.52028,-0.440728,0.489169,0.677295,0.328243,-0.247097,0.572545,-0.00510945,-0.00133994,0.0166534,0.0530345,0.0888155,-0.11911,0.266053
1413393230105760512,-2.98375,0.765462,1.51973,-0.440339,0.484583,0.678359,0.333331,-0.246906,0.592217,-0.0182824,-0.00132461,0.0166557,0.0530781,0.0844772,-0.123879,0.263513
1413393230155760384,-2.99763,0.795401,1.51925,-0.44041,0.481002,0.678878,0.337343,-0.265394,0.607729,-0.021718,-0.00126028,0.016702,0.0531331,0.0781882,-0.125216,0.248091
1413393230205760512,-3.0127,0.825905,1.52158,-0.440077,0.477968,0.679761,0.3403,-0.294356,0.607988,-0.0392731,-0.00111008,0.016696,0.0531237,0.0825192,-0.10518,0.220868
1413393230255760384,-3.02789,0.856481,1.51974,-0.44157,0.475576,0.679368,0.342494,-0.310488,0.613006,-0.0533272,-0.00103965,0.016779,0.0531982,0.0654927,-0.100831,0.222049
1413393230305760512,-3.04333,0.887204,1.51738,-0.444002,0.473796,0.67855,0.343438,-0.325463,0.611647,-0.0567507,-0.00104055,0.0168048,0.0532439,0.0663639,-0.103962,0.228946
1413393230355760384,-3.05909,0.917876,1.51252,-0.445967,0.474674,0.677728,0.341298,-0.332195,0.602887,-0.0916095,-0.00104645,0.0167653,0.0532989,0.077418,-0.108045,0.245468
1413393230405760512,-3.07498,0.948337,1.50838,-0.448705,0.475422,0.676346,0.339401,-0.342738,0.607932,-0.093556,-0.000994781,0.0167994,0.0533731,0.0809715,-0.103877,0.24163
1413393230455760384,-3.09212,0.979124,1.50337,-0.449995,0.477483,0.674911,0.337655,-0.346759,0.625687,-0.0861392,-0.00100139,0.0168331,0.0533849,0.0769402,-0.110503,0.253408
1413393230505760512,-3.10762,1.01115,1.49976,-0.45103,0.481478,0.672408,0.335587,-0.349094,0.635094,-0.0641535,-0.000967502,0.0168772,0.0534584,0.0831407,-0.10454,0.243088
1413393230555760384,-3.12395,1.0431,1.4927,-0.451097,0.486596,0.668816,0.335292,-0.330219,0.643797,-0.0904257,-0.00101468,0.0168054,0.0534895,0.0943768,-0.123645,0.235398
1413393230605760512,-3.13692,1.07558,1.4912,-0.450564,0.492788,0.66456,0.335427,-0.314539,0.661276,-0.0812509,-0.00102495,0.0168193,0.0535752,0.102465,-0.120446,0.236452
1413393230655760384,-3.15177,1.10909,1.48805,-0.449079,0.500397,0.659383,0.336371,-0.306121,0.663557,-0.0631523,-0.00107778,0.0167957,0.0536172,0.111274,-0.135515,0.242418
1413393230705760512,-3.16598,1.14308,1.48895,-0.446758,0.506994,0.654328,0.339441,-0.287118,0.682818,-0.0166048,-0.00113995,0.0167013,0.0536737,0.132048,-0.150433,0.249321
1413393230755760384,-3.17994,1.17668,1.48928,-0.444495,0.514802,0.648034,0.342718,-0.261188,0.678708,-0.00617758,-0.00119065,0.0166847,0.0537164,0.126428,-0.166228,0.251642
1413393230805760512,-3.19269,1.21046,1.4887,-0.441786,0.522472,0.641619,0.346661,-0.247617,0.683657,0.00791574,-0.00122783,0.0166901,0.0537495,0.122425,-0.172478,0.255453
1413393230855760384,-3.20315,1.24477,1.48637,-0.437483,0.530132,0.635474,0.35177,-0.216605,0.70077,0.0196029,-0.00114888,0.0167395,0.0537827,0.115552,-0.150293,0.244561
1413393230905760512,-3.21315,1.27994,1.48601,-0.432146,0.537156,0.629387,0.358588,-0.203972,0.714524,0.0492493,-0.00112222,0.0168043,0.0538289,0.099507,-0.13885,0.244699
1413393230955760384,-3.22282,1.31623,1.48951,-0.424992,0.542509,0.624715,0.367147,-0.186372,0.722589,0.0629322,-0.00112427,0.0168244,0.0538396,0.0934159,-0.148794,0.241021
1413393231005760512,-3.23169,1.35302,1.49512,-0.417329,0.546562,0.620839,0.376386,-0.171434,0.726704,0.0782079,-0.00110305,0.0168547,0.0538919,0.0814907,-0.148126,0.241724
1413393231055760384,-3.23816,1.39008,1.5007,-0.409541,0.549054,0.618492,0.385078,-0.170791,0.738935,0.0700239,-0.00117618,0.0168597,0.0539387,0.0843621,-0.158326,0.249631
1413393231105760512,-3.24663,1.42734,1.50308,-0.403807,0.550916,0.615638,0.392966,-0.19267,0.739326,0.0716316,-0.0011765,0.016919,0.0539805,0.070874,-0.161413,0.243517
1413393231155760384,-3.25629,1.46493,1.50707,-0.398757,0.552576,0.613291,0.399408,-0.207824,0.747231,0.0909166,-0.00115406,0.0169933,0.0540148,0.0567765,-0.16236,0.239804
1413393231205760512,-3.26704,1.50265,1.51209,-0.395215,0.555185,0.610748,0.403189,-0.229406,0.759174,0.0954729,-0.00116678,0.0170546,0.0540789,0.0516703,-0.164521,0.236342
1413393231255760384,-3.27985,1.54069,1.51719,-0.391846,0.556765,0.60892,0.407046,-0.269644,0.761464,0.0920194,-0.00112048,0.0170811,0.0541134,0.0476262,-0.16063,0.228592
1413393231305760512,-3.294,1.57867,1.52173,-0.391276,0.559156,0.606058,0.408585,-0.281678,0.756568,0.0511898,-0.00108951,0.0171388,0.0541585,0.0426735,-0.159381,0.224262
1413393231355760384,-3.30837,1.6163,1.52318,-0.392154,0.561913,0.602952,0.408557,-0.293585,0.759247,0.00663951,-0.00109242,0.0171667,0.0542076,0.0390192,-0.159144,0.223095
1413393231405760512,-3.32333,1.65375,1.52052,-0.394932,0.564512,0.599224,0.407781,-0.310811,0.766882,-0.0278357,-0.00106464,0.017142,0.0542652,0.0470691,-0.161471,0.222606
1413393231455760384,-3.33859,1.69201,1.51702,-0.399868,0.566541,0.594326,0.407325,-0.304964,0.769132,-0.0551111,-0.00107802,0.017134,0.0542952,0.0477713,-0.169494,0.220053
1413393231505760512,-3.35417,1.73041,1.51311,-0.406651,0.567413,0.588529,0.407812,-0.312644,0.761226,-0.0954713,-0.00107282,0.0171426,0.0543264,0.0493919,-0.174907,0.214955
1413393231555760384,-3.36949,1.76857,1.50673,-0.41505,0.5662,0.582384,0.409854,-0.314497,0.756369,-0.141745,-0.00105944,0.0171645,0.0543764,0.0427683,-0.179189,0.211303
1413393231605760512,-3.38443,1.80623,1.50011,-0.422817,0.565033,0.576428,0.41194,-0.288582,0.734688,-0.170664,-0.0010515,0.01718,0.0544305,0.0443101,-0.179839,0.212863
1413393231655760384,-3.3989,1.84253,1.49246,-0.427697,0.564857,0.571756,0.413653,-0.28325,0.704414,-0.186412,-0.00104053,0.0171878,0.0544668,0.0511078,-0.177745,0.214176
1413393231705760512,-3.412,1.8771,1.48366,-0.428858,0.565446,0.569187,0.415185,-0.255175,0.672264,-0.186706,-0.00103909,0.0171631,0.0545341,0.0670391,-0.176445,0.214547
1413393231755760384,-3.4238,1.90998,1.47471,-0.427121,0.56835,0.567122,0.415834,-0.221909,0.63965,-0.174806,-0.00104742,0.0171195,0.054581,0.075548,-0.178811,0.211089
1413393231805760512,-3.43488,1.94101,1.46652,-0.424546,0.572818,0.565077,0.415124,-0.215755,0.598746,-0.169018,-0.00103702,0.0170664,0.0546204,0.0867225,-0.177351,0.202666
1413393231855760384,-3.44494,1.97076,1.45851,-0.422156,0.579114,0.562311,0.412575,-0.18031,0.56766,-0.15811,-0.00100036,0.0170478,0.0546708,0.0937846,-0.175799,0.193339
1413393231905760512,-3.45332,1.99907,1.45056,-0.417808,0.587424,0.559171,0.409509,-0.141901,0.547067,-0.135068,-0.0010324,0.0170574,0.0547146,0.084359,-0.182848,0.195591
1413393231955760384,-3.45975,2.02665,1.4454,-0.414171,0.595348,0.555118,0.407267,-0.116627,0.538052,-0.124153,-0.00103783,0.017045,0.0547483,0.0818597,-0.184942,0.195604
1413393232005760512,-3.46443,2.05324,1.44155,-0.410285,0.602952,0.550316,0.40653,-0.0693031,0.511311,-0.119123,-0.00108975,0.0170699,0.0548078,0.0753846,-0.19662,0.196819
1413393232055760384,-3.46676,2.07912,1.43696,-0.404387,0.609196,0.546372,0.408447,-0.0280598,0.511733,-0.0844688,-0.00109463,0.0170312,0.0548267,0.0772981,-0.192367,0.196576
1413393232105760512,-3.46705,2.10424,1.43387,-0.398377,0.614602,0.542171,0.411838,0.00173859,0.490446,-0.0634104,-0.00116666,0.0170303,0.0548867,0.068076,-0.204317,0.194688
1413393232155760384,-3.46498,2.12833,1.43047,-0.392399,0.61984,0.537274,0.416123,0.0412783,0.476932,-0.0692038,-0.00119531,0.0169967,0.0549511,0.0610625,-0.201363,0.189499
1413393232205760512,-3.46197,2.15219,1.42828,-0.385994,0.622998,0.532353,0.423654,0.0705936,0.477728,-0.0641758,-0.00125668,0.0170043,0.0549698,0.0364161,-0.208085,0.181939
1413393232255760384,-3.45716,2.17555,1.42393,-0.380211,0.626949,0.526508,0.430308,0.0950937,0.471879,-0.0959847,-0.00131494,0.0169778,0.0550147,0.0284186,-0.208095,0.180257
1413393232305760512,-3.45096,2.19867,1.41827,-0.374729,0.631162,0.520113,0.436687,0.129325,0.465428,-0.124099,-0.00134656,0.016958,0.0550788,0.0219394,-0.208981,0.170909
1413393232355760384,-3.44377,2.22184,1.41118,-0.370268,0.636854,0.51234,0.441391,0.148742,0.464726,-0.155704,-0.00136324,0.0169737,0.0551149,0.00993558,-0.204361,0.16641
1413393232405760512,-3.43517,2.24472,1.40263,-0.364746,0.642836,0.50581,0.444835,0.1765,0.461059,-0.166648,-0.00139121,0.016975,0.0551589,-0.000316504,-0.20263,0.158567
1413393232455760384,-3.42542,2.26738,1.39283,-0.359299,0.648495,0.499018,0.448709,0.200064,0.452752,-0.200207,-0.00139504,0.0169895,0.0552217,-0.0106411,-0.2005,0.151408
1413393232505760512,-3.41501,2.29017,1.38201,-0.354494,0.65441,0.492053,0.451627,0.217883,0.457436,-0.227577,-0.0014244,0.0170073,0.055292,-0.0189307,-0.200953,0.148885
1413393232555760384,-3.40345,2.31315,1.37077,-0.350503,0.659001,0.48624,0.454353,0.236255,0.463697,-0.255204,-0.00141906,0.0170466,0.0553193,-0.0274095,-0.193649,0.137162
1413393232605760512,-3.39114,2.33636,1.35755,-0.347134,0.662394,0.48182,0.456708,0.246351,0.46147,-0.278618,-0.00139719,0.0170943,0.0553555,-0.0330426,-0.186964,0.128654
1413393232655760384,-3.37812,2.35948,1.3446,-0.345098,0.665728,0.476992,0.458467,0.273178,0.461994,-0.25122,-0.00137779,0.0171178,0.0553854,-0.0374818,-0.182397,0.120885
1413393232705760512,-3.36437,2.38282,1.33242,-0.343365,0.667802,0.473355,0.460518,0.277311,0.467932,-0.239124,-0.00138641,0.0171515,0.0554596,-0.0414523,-0.178779,0.120279
1413393232755760384,-3.34993,2.40617,1.32154,-0.340542,0.668954,0.471732,0.462603,0.295868,0.465,-0.209107,-0.00135267,0.0171901,0.055459,-0.0533489,-0.175429,0.110932
1413393232805760512,-3.33451,2.4296,1.31111,-0.338295,0.670413,0.470118,0.463779,0.324628,0.474972,-0.200738,-0.00135032,0.0172332,0.0554957,-0.0555058,-0.176354,0.108892
1413393232855760384,-3.31822,2.45409,1.30191,-0.337189,0.671158,0.468563,0.46508,0.329262,0.488569,-0.188027,-0.00130983,0.0173131,0.0556112,-0.0594385,-0.167254,0.108726
1413393232905760512,-3.3012,2.47835,1.29284,-0.33478,0.672058,0.468895,0.465186,0.349748,0.485302,-0.17414,-0.00130476,0.0173452,0.0556584,-0.0606199,-0.168325,0.107627
1413393232955760384,-3.28316,2.50281,1.28563,-0.330974,0.671318,0.470459,0.467394,0.367599,0.487078,-0.126687,-0.00133035,0.0174022,0.0557167,-0.0616694,-0.171469,0.105287
1413393233005760512,-3.26456,2.52777,1.2801,-0.327679,0.670912,0.472281,0.468461,0.373275,0.50333,-0.0922792,-0.00134182,0.017433,0.0556863,-0.0642475,-0.176176,0.102424
1413393233055760384,-3.24562,2.55379,1.27802,-0.324157,0.670074,0.474828,0.469534,0.377727,0.517542,-0.0483088,-0.00123182,0.0175663,0.0557312,-0.0679062,-0.164755,0.0952192
1413393233105760512,-3.22621,2.57946,1.27604,-0.321151,0.670017,0.476912,0.469568,0.390558,0.513669,-0.0145884,-0.00122765,0.0175946,0.0557605,-0.0636343,-0.164704,0.0975231
1413393233155760384,-3.20678,2.6059,1.27663,-0.319663,0.669534,0.478166,0.469997,0.385663,0.531451,0.0296346,-0.00120934,0.0176394,0.0557491,-0.0644545,-0.161235,0.0991594
1413393233205760512,-3.18546,2.63156,1.27601,-0.319373,0.668259,0.478658,0.471507,0.396239,0.540348,0.0810268,-0.00149877,0.0176084,0.0557863,-0.0591139,-0.195264,0.106573
1413393233255760384,-3.16369,2.65798,1.28122,-0.318805,0.666282,0.477916,0.475424,0.417713,0.529429,0.123111,-0.00169045,0.0176,0.0557992,-0.0595435,-0.210985,0.107713
1413393233305760512,-3.14253,2.68456,1.28893,-0.318158,0.665055,0.475932,0.479548,0.4131,0.540388,0.17424,-0.00183642,0.0177228,0.0557905,-0.0695802,-0.21813,0.117407
1413393233355760384,-3.12166,2.71139,1.29877,-0.317948,0.663759,0.472351,0.484992,0.419049,0.538377,0.230834,-0.00187548,0.0178047,0.0557722,-0.0682051,-0.219305,0.117413
1413393233405760512,-3.10059,2.73773,1.31022,-0.318106,0.663522,0.466901,0.49046,0.417803,0.520496,0.242906,-0.0019623,0.0178264,0.0557579,-0.0665808,-0.220393,0.115974
1413393233455760384,-3.07999,2.76367,1.32343,-0.31966,0.665581,0.458644,0.494434,0.40878,0.514848,0.293336,-0.00204505,0.0178743,0.0557253,-0.064611,-0.220643,0.11518
1413393233505760512,-3.05974,2.78907,1.33997,-0.316423,0.667333,0.453357,0.499009,0.401419,0.483008,0.3353,-0.00201714,0.017858,0.0556128,-0.0579169,-0.213918,0.110545
1413393233555760384,-3.03976,2.81299,1.35707,-0.313356,0.671486,0.446777,0.501303,0.40271,0.458292,0.340603,-0.00208345,0.0179293,0.0556907,-0.0541273,-0.207497,0.107182
1413393233605760512,-3.01994,2.83776,1.3709,-0.306095,0.676032,0.442141,0.503784,0.396525,0.465496,0.382976,-0.00176303,0.018074,0.0559112,-0.0554085,-0.161072,0.101757
1413393233655760384,-3.00093,2.8612,1.38839,-0.297757,0.68235,0.437082,0.504678,0.387731,0.45924,0.413942,-0.00169157,0.0181294,0.0560196,-0.0492899,-0.15203,0.0966068
1413393233705760512,-2.98222,2.88426,1.40857,-0.289101,0.689596,0.431455,0.504703,0.370713,0.456721,0.446084,-0.00164715,0.0182247,0.0561521,-0.0460606,-0.14273,0.0910993
1413393233755760384,-2.96416,2.90736,1.43182,-0.281162,0.693343,0.425243,0.509306,0.35302,0.465842,0.4996,-0.0016197,0.0181879,0.0562408,-0.0337231,-0.137102,0.0898388
1413393233805760512,-2.9477,2.93013,1.45538,-0.276557,0.696704,0.417803,0.513382,0.323413,0.455541,0.515286,-0.00159385,0.0181689,0.0561888,-0.0385984,-0.138461,0.0925314
1413393233855760384,-2.93207,2.95343,1.48066,-0.273231,0.698345,0.41037,0.518899,0.293268,0.471465,0.502262,-0.00157717,0.0182927,0.0561528,-0.0588994,-0.138941,0.0929616
1413393233905760512,-2.91873,2.97641,1.50131,-0.274574,0.701026,0.399393,0.523123,0.272283,0.469378,0.490914,-0.00152355,0.0182709,0.0561123,-0.0745684,-0.14442,0.0967504
1413393233955760384,-2.90531,2.99959,1.52541,-0.273474,0.704195,0.388552,0.527588,0.265555,0.45215,0.482504,-0.00151122,0.0184713,0.0561558,-0.100975,-0.144585,0.0926046
1413393234005760512,-2.89324,3.02188,1.54983,-0.271547,0.708407,0.38034,0.528926,0.238515,0.449591,0.482701,-0.00152966,0.0185505,0.0563221,-0.100389,-0.144676,0.103284
1413393234055760384,-2.88032,3.0431,1.57494,-0.268201,0.713193,0.373853,0.528827,0.224695,0.432342,0.468055,-0.00155619,0.0186128,0.0564946,-0.0736053,-0.143089,0.114329
1413393234105760512,-2.8704,3.06485,1.60622,-0.26351,0.718826,0.366992,0.528363,0.219157,0.408912,0.450296,-0.00153801,0.0186565,0.0566639,-0.0579084,-0.142468,0.128074
1413393234155760384,-2.86123,3.08677,1.64254,-0.258404,0.724661,0.360707,0.527242,0.208823,0.395142,0.406441,-0.00150915,0.0187316,0.0568383,-0.0450974,-0.140928,0.132038
1413393234205760512,-2.85174,3.10634,1.6678,-0.256514,0.729007,0.353053,0.527354,0.216887,0.3715,0.383683,-0.00148939,0.018763,0.0569203,-0.031729,-0.143879,0.14099
1413393234255760384,-2.84088,3.12412,1.68549,-0.259425,0.731116,0.341183,0.530813,0.236408,0.339334,0.354604,-0.00148866,0.0187002,0.0568502,-0.0200765,-0.152475,0.137069
1413393234305760512,-2.83006,3.14244,1.70294,-0.265111,0.731935,0.32774,0.535326,0.24618,0.306785,0.328579,-0.00149316,0.0186967,0.0567823,0.00601271,-0.155756,0.133611
1413393234355760384,-2.81644,3.161,1.71377,-0.273076,0.732293,0.312434,0.539965,0.251673,0.257953,0.302966,-0.00149231,0.01866,0.0567432,0.0150186,-0.16037,0.131213
1413393234405760512,-2.81338,3.19957,1.60231,-0.273381,0.730895,0.292768,0.552578,0.249558,0.195712,0.243282,-0.000909589,0.0183265,0.0567845,0.00445174,-0.248309,0.0480613
1413393234455760384,-2.80748,3.20945,1.61201,-0.274551,0.732586,0.278087,0.557322,0.236391,0.136252,0.200231,-0.000706279,0.0183278,0.0567422,0.0155731,-0.273297,0.0404636
1413393234505760512,-2.79431,3.21202,1.61968,-0.27453,0.732837,0.268992,0.561451,0.231431,0.0502154,0.154576,-0.00077891,0.0182705,0.0568114,0.02042,-0.270264,0.0322817
1413393234555760384,-2.78224,3.21241,1.62791,-0.269303,0.73398,0.261438,0.566038,0.236452,-0.0475045,0.191266,-0.000796206,0.0182563,0.0568125,0.0214749,-0.272848,0.0254501
1413393234605760512,-2.77076,3.20776,1.6385,-0.255692,0.733732,0.260358,0.573126,0.248056,-0.124794,0.184572,-0.00082993,0.0182686,0.056901,0.0187119,-0.263137,0.0167902
1413393234655760384,-2.75821,3.19918,1.6524,-0.234109,0.733813,0.264573,0.58027,0.242482,-0.211536,0.243737,-0.000869413,0.0182716,0.0569973,0.0118087,-0.257753,0.00494589
1413393234705760512,-2.74815,3.18633,1.66891,-0.210697,0.734271,0.269025,0.586582,0.208257,-0.285601,0.379612,-0.000894502,0.0182387,0.0571371,0.00332718,-0.266395,-0.00645019
1413393234755760384,-2.74116,3.16988,1.68472,-0.190984,0.737681,0.270185,0.588516,0.174141,-0.321325,0.393403,-0.000889236,0.0182056,0.0572524,-0.00975859,-0.272866,-0.0194148
1413393234805760512,-2.75638,3.15353,1.69132,-0.169503,0.737349,0.274798,0.593356,0.142028,-0.326764,0.396779,-0.000840642,0.0180363,0.0578901,-0.0446339,-0.363927,-0.136773
1413393234855760384,-2.75179,3.13457,1.71062,-0.155827,0.742867,0.272582,0.591241,0.12575,-0.33085,0.323064,-0.000874898,0.0179859,0.0581124,-0.0597932,-0.386315,-0.173623
1413393234905760512,-2.74902,3.12172,1.7253,-0.147958,0.751774,0.262402,0.586591,0.113796,-0.324028,0.234304,-0.000792908,0.0180671,0.0579771,-0.0609258,-0.353592,-0.157844
1413393234955760384,-2.74168,3.10294,1.74531,-0.144444,0.755633,0.254355,0.586054,0.0962129,-0.309927,0.131082,-0.000902638,0.0179875,0.058191,-0.0743339,-0.374183,-0.203784
1413393235005760512,-2.74123,3.09003,1.7415,-0.142447,0.763611,0.239226,0.582562,0.082626,-0.298642,0.0314407,-0.000791636,0.0180538,0.0580554,-0.0733617,-0.356568,-0.168112
1413393235055760384,-2.74107,3.07355,1.73724,-0.142962,0.767236,0.225138,0.583287,0.0825822,-0.292887,-0.0655053,-0.000779727,0.0179643,0.058209,-0.0847148,-0.369545,-0.201536
1413393235105760512,-2.74263,3.05807,1.72669,-0.141871,0.771465,0.209087,0.583949,0.0836937,-0.296458,-0.154778,-0.000683194,0.0179163,0.0582013,-0.0938057,-0.373899,-0.22946
1413393235155760384,-2.74142,3.04225,1.71629,-0.138471,0.775374,0.195491,0.584298,0.0948821,-0.299705,-0.225661,-0.000634759,0.017897,0.0582239,-0.11017,-0.365389,-0.252862
1413393235205760512,-2.73808,3.02633,1.7038,-0.130245,0.777494,0.185467,0.586636,0.100227,-0.302894,-0.242178,-0.000599781,0.017885,0.0582631,-0.119381,-0.349137,-0.273362
1413393235255760384,-2.73441,3.01088,1.69021,-0.118155,0.780138,0.178659,0.587797,0.103445,-0.304932,-0.256312,-0.000576242,0.0178838,0.0583141,-0.129882,-0.338868,-0.292499
1413393235305760512,-2.72855,2.99477,1.67432,-0.104714,0.782844,0.173521,0.588286,0.104946,-0.298956,-0.230224,-0.000589372,0.0178931,0.0583019,-0.143748,-0.327214,-0.301694
1413393235355760384,-2.72289,2.97937,1.66068,-0.0929932,0.785811,0.169309,0.587527,0.104907,-0.28469,-0.217675,-0.00061548,0.0178777,0.0583023,-0.146485,-0.318681,-0.306905
1413393235405760512,-2.71756,2.96417,1.64929,-0.0826102,0.788901,0.166644,0.585697,0.100895,-0.261321,-0.192051,-0.000619886,0.0178726,0.0583532,-0.152172,-0.31297,-0.318718
1413393235455760384,-2.71281,2.95234,1.64111,-0.0739122,0.791577,0.164419,0.583875,0.113423,-0.231772,-0.167226,-0.000627068,0.017906,0.0584112,-0.151347,-0.316935,-0.317268
1413393235505760512,-2.70834,2.9435,1.63325,-0.0653446,0.794534,0.163286,0.581191,0.129196,-0.194128,-0.130122,-0.000610845,0.0179461,0.0584349,-0.15043,-0.322101,-0.311231
1413393235555760384,-2.70565,2.93717,1.62895,-0.0535291,0.794121,0.162795,0.583099,0.148987,-0.142229,-0.0836526,-0.000513042,0.0180337,0.0584484,-0.143834,-0.329493,-0.305834
1413393235605760512,-2.69931,2.93447,1.62235,-0.0390399,0.792261,0.163503,0.586571,0.154112,-0.0903728,-0.0991547,-0.000370535,0.0181427,0.0584315,-0.132351,-0.347479,-0.288258
1413393235655760384,-2.6903,2.93158,1.61276,-0.0281247,0.789904,0.161736,0.590849,0.158656,-0.0337926,-0.0756226,-0.000241115,0.0182336,0.0584982,-0.124052,-0.368868,-0.283768
1413393235705760512,-2.68303,2.92924,1.6218,-0.0296782,0.784103,0.166149,0.597241,0.147736,0.0362457,-0.0753783,-0.000684833,0.018026,0.0588023,-0.141921,-0.343692,-0.373394
1413393235755760384,-2.70004,2.94546,1.61233,-0.0190311,0.785813,0.153849,0.598721,0.135949,0.092239,-0.0649686,3.55554e-05,0.0182911,0.0585494,-0.118973,-0.377493,-0.339404
1413393235805760512,-2.6946,2.95138,1.60934,-0.0227125,0.785224,0.149247,0.600527,0.115241,0.152347,-0.0582809,7.98281e-06,0.0182998,0.0585767,-0.113793,-0.363277,-0.354049
1413393235855760384,-2.68792,2.9591,1.60669,-0.0336498,0.784931,0.141048,0.602376,0.101237,0.191562,-0.0631288,-2.11782e-05,0.0182758,0.0585918,-0.122239,-0.342568,-0.386684
1413393235905760512,-2.68319,2.96999,1.60399,-0.0455026,0.785018,0.130434,0.603874,0.0812614,0.216566,-0.0684698,-3.77441e-05,0.0182485,0.0585972,-0.125467,-0.33228,-0.403097
1413393235955760384,-2.67866,2.98164,1.60058,-0.0563702,0.785237,0.119518,0.604931,0.0707788,0.235107,-0.0598418,-6.58421e-05,0.0182556,0.0586149,-0.133497,-0.321181,-0.40771
1413393236005760512,-2.67501,2.99286,1.59751,-0.0626991,0.78442,0.109919,0.607184,0.0557529,0.228566,-0.0381755,-6.85942e-05,0.0182695,0.0586321,-0.14292,-0.316361,-0.423004
1413393236055760384,-2.6718,3.00494,1.59626,-0.0679917,0.784359,0.0991211,0.608551,0.0588717,0.218551,-0.0397608,-6.81872e-05,0.0182885,0.0586605,-0.15061,-0.305522,-0.426458
1413393236105760512,-2.66931,3.01585,1.59343,-0.0693394,0.7849,0.0887976,0.609294,0.0811244,0.206867,-0.0011934,-4.57631e-05,0.0183129,0.0586763,-0.154135,-0.29621,-0.43946
1413393236155760384,-2.66699,3.02431,1.59408,-0.0675038,0.785736,0.0784295,0.609846,0.054128,0.160766,0.00330949,-1.71893e-05,0.0183649,0.0586659,-0.156763,-0.29272,-0.432876
1413393236205760512,-2.66657,3.03528,1.59506,-0.0592054,0.7879,0.0698806,0.608955,0.0402094,0.132674,0.0349884,4.01114e-05,0.0184133,0.0586676,-0.162344,-0.292047,-0.437612
1413393236255760384,-2.66665,3.04126,1.59814,-0.0478876,0.790211,0.0638368,0.607617,0.0130178,0.122024,0.0733038,5.46428e-05,0.0184077,0.0586494,-0.160647,-0.281976,-0.447088
1413393236305760512,-2.66541,3.04358,1.59676,-0.0339207,0.792264,0.0574671,0.606518,0.023565,0.0897775,0.0645191,0.000112674,0.018414,0.0586298,-0.173572,-0.249638,-0.451298
1413393236355760384,-2.66762,3.05307,1.60619,-0.0223611,0.793388,0.0500082,0.606247,0.0196429,0.0915093,0.104595,0.000109492,0.0184069,0.058642,-0.176048,-0.240081,-0.458707
1413393236405760512,-2.66699,3.0609,1.61362,-0.0141769,0.795036,0.0412561,0.604992,0.019493,0.105894,0.108416,0.000112325,0.0184261,0.0586897,-0.183925,-0.229422,-0.451679
1413393236455760384,-2.66314,3.06581,1.61744,-0.00791873,0.796017,0.0311644,0.60442,0.0126116,0.100016,0.0988296,9.54516e-05,0.0184149,0.0587107,-0.185119,-0.218989,-0.438621
1413393236505760512,-2.6629,3.06942,1.62164,-0.00341758,0.798521,0.0199385,0.601627,0.0176347,0.094747,0.100843,8.61958e-05,0.0183713,0.0587492,-0.190579,-0.203994,-0.455427
1413393236555760384,-2.65186,3.06659,1.62514,-0.00175124,0.801077,0.0118404,0.598442,0.0265657,0.0980185,0.109439,-0.000126019,0.0182747,0.0589239,-0.20336,-0.163552,-0.483566
1413393236605760512,-2.66444,3.07782,1.63127,0.00727938,0.806907,-0.00301203,0.590626,0.0440132,0.102738,0.111803,0.000149364,0.0183876,0.0587271,-0.191228,-0.172428,-0.469815
1413393236655760384,-2.65825,3.07907,1.63165,0.0110307,0.810828,-0.0138359,0.585018,0.0786839,0.103893,0.0621571,0.000143151,0.0183685,0.0587896,-0.194152,-0.152319,-0.48195
1413393236705760512,-2.65222,3.0807,1.62977,0.0132245,0.812585,-0.0238927,0.582202,0.0937855,0.108525,0.00915189,0.000144757,0.0183724,0.0588061,-0.192113,-0.130082,-0.489155
1413393236755760384,-2.64682,3.08427,1.62737,0.0133627,0.812801,-0.0348146,0.581348,0.11727,0.0985713,-0.0333871,0.000157269,0.0183806,0.0587996,-0.195682,-0.107138,-0.479131
1413393236805760512,-2.62933,3.08957,1.63193,0.00486712,0.810535,-0.0402296,0.584287,0.137409,0.0924753,-0.0733506,-0.000254663,0.0181794,0.0590669,-0.208917,-0.0488893,-0.519232
1413393236855760384,-2.61739,3.09037,1.62537,0.00480478,0.808486,-0.0481916,0.586519,0.165207,0.0759111,-0.0614384,-0.00030317,0.0181736,0.0591069,-0.218112,-0.0289083,-0.514547
1413393236905760512,-2.60759,3.09473,1.624,0.00556723,0.80638,-0.0530681,0.588986,0.182829,0.050723,0.00735936,-0.000373726,0.0181588,0.0591691,-0.217317,-0.0142812,-0.510031
1413393236955760384,-2.5965,3.09545,1.62357,0.00937542,0.803097,-0.0556814,0.593167,0.208736,0.017083,0.0475183,-0.000394224,0.0181734,0.059196,-0.221209,-0.00329803,-0.494645
1413393237005760512,-2.58643,3.09637,1.62809,0.0149073,0.800109,-0.0562691,0.597024,0.222645,0.00155153,0.133646,-0.0003862,0.0181861,0.0591872,-0.223674,-0.00164994,-0.492674
1413393237055760384,-2.60095,3.13579,1.65558,0.0405124,0.79459,-0.0462406,0.604027,0.210751,-0.0126728,0.201928,-3.70681e-05,0.0191737,0.0597303,-0.242258,-0.401786,-0.539408
1413393237105760512,-2.58084,3.12357,1.6409,0.0390152,0.794169,-0.0463201,0.604672,0.214206,-0.0133839,0.274273,-0.000217442,0.0187651,0.0595446,-0.241024,-0.212781,-0.519353
1413393237155760384,-2.57065,3.12373,1.65548,0.0480457,0.791466,-0.0414759,0.607909,0.221835,-0.00145934,0.258508,-0.000190436,0.0187988,0.0595686,-0.243378,-0.208056,-0.515853
1413393237205760512,-2.5611,3.12445,1.6668,0.0562424,0.789803,-0.0365206,0.609684,0.221791,0.0145269,0.214675,-0.000160478,0.0188089,0.0595946,-0.240329,-0.20632,-0.528259
1413393237255760384,-2.55054,3.12607,1.6755,0.0618404,0.788606,-0.0329728,0.610892,0.234043,0.0171853,0.146622,-0.000132544,0.0188273,0.0596049,-0.23502,-0.195326,-0.528498
1413393237305760512,-2.53928,3.12815,1.68001,0.0662104,0.789022,-0.0300231,0.610048,0.227026,0.0437866,0.0903124,-0.000118375,0.0188258,0.0596449,-0.242131,-0.199197,-0.526494
1413393237355760384,-2.52885,3.13149,1.68292,0.0688497,0.78947,-0.0272835,0.609305,0.218901,0.0739419,0.0192489,-9.52073e-05,0.0188509,0.0596623,-0.24429,-0.191022,-0.524024
1413393237405760512,-2.51832,3.13601,1.68147,0.0696752,0.788907,-0.0259499,0.609999,0.215778,0.0913953,-0.0482722,-7.96222e-05,0.0188695,0.0596999,-0.240471,-0.187938,-0.527239
1413393237455760384,-2.50784,3.14192,1.67816,0.0671097,0.788624,-0.0264115,0.610632,0.214217,0.133858,-0.0778531,-7.20812e-05,0.0188717,0.0597045,-0.232264,-0.188818,-0.52387
1413393237505760512,-2.49752,3.14974,1.67422,0.0604413,0.78817,-0.0289946,0.611796,0.216344,0.162209,-0.0946213,-4.20512e-05,0.0188875,0.0597466,-0.228284,-0.179632,-0.522518
1413393237555760384,-2.48735,3.15887,1.66932,0.0515637,0.788479,-0.0330244,0.612007,0.208148,0.180422,-0.0894365,-4.46036e-05,0.0188776,0.0597683,-0.228755,-0.180305,-0.522176
1413393237605760512,-2.47693,3.16826,1.66464,0.0422266,0.788098,-0.0372998,0.612967,0.206389,0.184809,-0.0901537,-4.42651e-05,0.0188908,0.0597969,-0.236505,-0.177374,-0.520047
1413393237655760384,-2.46704,3.17767,1.6604,0.0331277,0.78943,-0.0416158,0.611532,0.199018,0.178666,-0.0783369,-3.89415e-05,0.0189093,0.0598019,-0.239354,-0.17735,-0.519173
1413393237705760512,-2.45715,3.18677,1.65597,0.0255777,0.789905,-0.0450138,0.61104,0.192743,0.164401,-0.0852397,-3.64032e-05,0.0189089,0.0598132,-0.242583,-0.173292,-0.517105
1413393237755760384,-2.44778,3.19507,1.652,0.0204476,0.79097,-0.0466059,0.609735,0.181022,0.144895,-0.0726042,-4.72701e-05,0.018921,0.0598357,-0.245921,-0.167162,-0.518782
1413393237805760512,-2.43884,3.20212,1.64877,0.0174048,0.791968,-0.0472991,0.608479,0.183219,0.119882,-0.0483551,-3.46637e-05,0.0189313,0.0598461,-0.248107,-0.170006,-0.513209
1413393237855760384,-2.43013,3.20799,1.64546,0.0174722,0.793695,-0.0461005,0.606316,0.187156,0.0954185,-0.056188,-1.85393e-05,0.0189349,0.0598699,-0.251613,-0.159821,-0.506935
1413393237905760512,-2.42122,3.21265,1.64386,0.0195129,0.795904,-0.0439941,0.603507,0.181598,0.0720207,-0.0313499,-2.23466e-05,0.0189608,0.0598895,-0.259015,-0.159632,-0.488678
1413393237955760384,-2.41188,3.21603,1.64231,0.0220205,0.797302,-0.042064,0.601711,0.178282,0.0461128,-0.0398828,-1.09843e-05,0.0189712,0.0598945,-0.271637,-0.160593,-0.470951
1413393238005760512,-2.40235,3.21807,1.63924,0.0291805,0.800848,-0.0372934,0.596992,0.183194,0.0312141,-0.0398489,-1.68305e-05,0.0189901,0.0599112,-0.275552,-0.152764,-0.445754
1413393238055760384,-2.39254,3.2201,1.63629,0.0361529,0.803549,-0.0328196,0.593233,0.204379,0.0317021,-0.019611,-9.75484e-06,0.0190022,0.0599132,-0.276591,-0.156938,-0.445302
1413393238105760512,-2.38187,3.22158,1.6344,0.0413452,0.806112,-0.0298986,0.58956,0.221769,0.0267842,-0.0141483,-5.65259e-06,0.0190176,0.0599165,-0.271985,-0.156807,-0.445695
1413393238155760384,-2.37019,3.22326,1.63456,0.0466694,0.80681,-0.0280445,0.588297,0.234319,0.0251848,0.0149912,1.53515e-05,0.0190261,0.0599259,-0.267931,-0.140253,-0.441553
1413393238205760512,-2.35705,3.22472,1.63432,0.0505758,0.807667,-0.0270717,0.586842,0.264582,0.0476718,0.0293733,1.69835e-05,0.0190425,0.0599623,-0.265871,-0.141316,-0.442106
1413393238255760384,-2.34318,3.22816,1.63775,0.0537715,0.80798,-0.0263989,0.586158,0.263886,0.068016,0.0871465,2.53148e-05,0.0190673,0.0599985,-0.2728,-0.141853,-0.445166
1413393238305760512,-2.32844,3.23218,1.6427,0.0567638,0.808365,-0.0273614,0.585299,0.292906,0.0794454,0.157273,3.86061e-05,0.0190929,0.0600371,-0.276149,-0.145067,-0.449168
1413393238355760384,-2.31303,3.23774,1.65202,0.0578109,0.808767,-0.0287213,0.584576,0.32381,0.111142,0.195282,3.79722e-05,0.0191242,0.0600911,-0.279787,-0.152733,-0.448218
1413393238405760512,-2.29462,3.24341,1.66341,0.0580423,0.808419,-0.0303877,0.58495,0.360462,0.130328,0.26367,3.40528e-05,0.0191509,0.0601297,-0.27818,-0.157149,-0.444083
1413393238455760384,-2.27608,3.25079,1.67732,0.0555687,0.807001,-0.0340087,0.586945,0.379935,0.15007,0.288512,3.13211e-05,0.019181,0.0601782,-0.275892,-0.165304,-0.448166
1413393238505760512,-2.25687,3.25839,1.68977,0.0492872,0.805673,-0.040335,0.588927,0.401381,0.161225,0.25432,3.81575e-05,0.0191886,0.0602055,-0.273832,-0.158742,-0.448671
1413393238555760384,-2.23713,3.2673,1.70208,0.0420871,0.802853,-0.0473156,0.592804,0.411838,0.166176,0.19822,4.39064e-05,0.0192248,0.0602603,-0.269479,-0.16425,-0.450397
1413393238605760512,-2.21621,3.27614,1.7128,0.0340035,0.80009,-0.0542193,0.596457,0.434021,0.149786,0.142691,3.19749e-05,0.0192481,0.0603108,-0.264218,-0.17773,-0.461654
1413393238655760384,-2.19526,3.28407,1.71991,0.0267732,0.798169,-0.0607261,0.598767,0.446218,0.124139,0.103075,5.07621e-05,0.0192896,0.0603472,-0.270764,-0.192286,-0.475437
1413393238705760512,-2.17311,3.29,1.7235,0.0208548,0.796632,-0.066101,0.600478,0.452088,0.0953604,0.0412134,3.66292e-05,0.0192915,0.0603743,-0.272058,-0.195418,-0.485673
1413393238755760384,-2.15091,3.29425,1.72592,0.0170922,0.795309,-0.069664,0.601946,0.451239,0.0540217,0.00461094,4.9481e-05,0.0193351,0.0604342,-0.266185,-0.196533,-0.496327
1413393238805760512,-2.12838,3.29622,1.72574,0.0162481,0.794231,-0.0711806,0.603214,0.447923,0.0171601,-0.0076394,5.77527e-05,0.0193378,0.0604523,-0.264811,-0.198416,-0.507574
1413393238855760384,-2.10611,3.29629,1.72791,0.0193438,0.793862,-0.0699554,0.603751,0.439049,-0.0286494,0.00247599,5.31243e-05,0.0193947,0.0605424,-0.26633,-0.215881,-0.506496
1413393238905760512,-2.08352,3.29437,1.73098,0.0257429,0.793876,-0.0662898,0.603907,0.440849,-0.0659674,0.0155346,3.80533e-05,0.0194629,0.0606204,-0.273987,-0.250796,-0.515697
1413393238955760384,-2.06243,3.29063,1.73185,0.0343405,0.794101,-0.0611466,0.603726,0.427736,-0.0963792,0.031891,3.54978e-05,0.0194889,0.0606678,-0.275397,-0.256289,-0.537057
1413393239005760512,-2.04112,3.28627,1.7364,0.0445777,0.79368,-0.0553214,0.604172,0.425795,-0.121838,0.0510335,2.89037e-05,0.0195524,0.0607558,-0.277189,-0.26954,-0.547643
1413393239055760384,-2.01909,3.28074,1.73913,0.0528595,0.794015,-0.0495599,0.603565,0.437147,-0.108077,0.0477693,2.64916e-05,0.0195637,0.0608247,-0.268826,-0.276291,-0.560249
1413393239105760512,-1.99742,3.27498,1.74105,0.0596086,0.793849,-0.0455189,0.603472,0.435808,-0.121898,0.0367508,6.039e-06,0.0195793,0.0608458,-0.269771,-0.282134,-0.563845
1413393239155760384,-1.97539,3.26953,1.74273,0.0643954,0.793619,-0.0429733,0.603469,0.443,-0.100582,0.0572193,2.23679e-06,0.019567,0.0608953,-0.257535,-0.27664,-0.577275
1413393239205760512,-1.95202,3.2651,1.74626,0.0685566,0.794108,-0.0396145,0.602597,0.454412,-0.0759651,0.0404973,7.4495e-06,0.0195739,0.0609043,-0.254852,-0.279864,-0.564804
1413393239255760384,-1.92892,3.2612,1.74998,0.0706395,0.793711,-0.0390179,0.602919,0.449872,-0.0805978,0.0488971,-1.02543e-05,0.0196187,0.0609726,-0.267431,-0.295888,-0.56362
1413393239305760512,-1.90589,3.25779,1.75213,0.073176,0.79402,-0.0381417,0.602265,0.460493,-0.0530689,0.0568206,-1.12171e-05,0.0196435,0.061001,-0.27011,-0.295852,-0.573301
1413393239355760384,-1.88221,3.25556,1.75416,0.0739292,0.794741,-0.0374304,0.601266,0.467607,-0.0310443,0.0644608,-9.01431e-06,0.0196521,0.0610466,-0.269633,-0.298333,-0.586646
1413393239405760512,-1.85828,3.25403,1.75693,0.0743336,0.79499,-0.0377291,0.600867,0.474412,-0.0196923,0.0656783,-2.05272e-05,0.0196695,0.0610851,-0.26966,-0.295754,-0.584677
1413393239455760384,-1.83371,3.25392,1.75983,0.0736184,0.795613,-0.0384793,0.600083,0.4799,0.0132392,0.0674535,-1.31523e-05,0.0196511,0.0611444,-0.268559,-0.289615,-0.593521
1413393239505760512,-1.80868,3.25478,1.76381,0.0756649,0.795707,-0.0367248,0.599814,0.486926,0.0292933,0.0973256,-3.09804e-05,0.0196564,0.0611733,-0.271136,-0.292879,-0.588776
1413393239555760384,-1.78332,3.25685,1.76785,0.0733561,0.796097,-0.0382468,0.599488,0.488103,0.0558807,0.0970953,-4.16956e-05,0.0196594,0.0611897,-0.269284,-0.291604,-0.597806
1413393239605760512,-1.75755,3.26041,1.77274,0.0691168,0.796569,-0.0399712,0.599253,0.493862,0.0920271,0.108376,-6.09658e-05,0.0196671,0.0612443,-0.275158,-0.293239,-0.589124
1413393239655760384,-1.73134,3.26542,1.77837,0.0614648,0.796385,-0.0443616,0.600021,0.502124,0.09337,0.133871,-8.0782e-05,0.0196668,0.0612609,-0.271309,-0.293372,-0.600345
1413393239705760512,-1.70459,3.27015,1.78407,0.0504338,0.79626,-0.050935,0.600693,0.514351,0.0846892,0.135565,-0.000111167,0.01967,0.0613031,-0.267137,-0.287816,-0.60748
1413393239755760384,-1.67705,3.27393,1.79012,0.0413116,0.795908,-0.0558495,0.601419,0.527746,0.0765673,0.129723,-0.000135628,0.0196667,0.0613349,-0.265317,-0.290105,-0.596624
1413393239805760512,-1.64961,3.27674,1.7957,0.0352919,0.795858,-0.0588581,0.601582,0.532188,0.0389135,0.13756,-0.000180173,0.0196686,0.0613735,-0.267467,-0.294975,-0.595791
1413393239855760384,-1.62217,3.27808,1.80096,0.03213,0.796859,-0.0605123,0.600268,0.532798,0.0193283,0.11687,-0.000200562,0.0196638,0.0613955,-0.269117,-0.282092,-0.597262
1413393239905760512,-1.59473,3.27837,1.80577,0.0334946,0.797596,-0.0590601,0.599359,0.537572,-0.00392632,0.136585,-0.000208731,0.0196528,0.0614355,-0.268508,-0.268278,-0.612639
1413393239955760384,-1.56637,3.27764,1.81201,0.034869,0.797762,-0.0577187,0.599191,0.547536,-0.0289361,0.149772,-0.000212856,0.0196327,0.0614553,-0.251407,-0.25778,-0.621197
1413393240005760512,-1.53776,3.27567,1.81773,0.038684,0.796997,-0.0544628,0.600278,0.556489,-0.0480699,0.14803,-0.000237424,0.019613,0.0615119,-0.249237,-0.261919,-0.623057
1413393240055760384,-1.50914,3.27308,1.82485,0.0438252,0.796338,-0.0500957,0.601179,0.5565,-0.0613694,0.156946,-0.000251406,0.0195915,0.0615336,-0.251511,-0.26565,-0.631
1413393240105760512,-1.48074,3.26988,1.83265,0.051067,0.794897,-0.0448779,0.602924,0.556483,-0.0748942,0.167335,-0.000255923,0.0196095,0.0615762,-0.250479,-0.255194,-0.60778
1413393240155760384,-1.452,3.26645,1.83892,0.0571689,0.793896,-0.0398082,0.60405,0.559385,-0.0638216,0.135036,-0.000279196,0.0195848,0.0615994,-0.243528,-0.272529,-0.611192
1413393240205760512,-1.42401,3.26369,1.84489,0.0612606,0.79293,-0.0360888,0.605151,0.550067,-0.0523161,0.0927028,-0.000285033,0.0196089,0.0616361,-0.255411,-0.265104,-0.606526
1413393240255760384,-1.39612,3.26125,1.84802,0.0642706,0.793399,-0.0333965,0.604377,0.554413,-0.0390905,0.0395385,-0.000274133,0.019628,0.0616704,-0.25282,-0.259636,-0.586124
1413393240305760512,-1.36723,3.26005,1.84774,0.063271,0.793634,-0.0334109,0.604174,0.562913,-0.0157348,-0.0190989,-0.000292623,0.0196533,0.061692,-0.225398,-0.259383,-0.564096
1413393240355760384,-1.33833,3.25939,1.84471,0.0612306,0.793641,-0.0342748,0.604326,0.56959,-0.00598446,-0.075158,-0.000296974,0.0196381,0.0617288,-0.197204,-0.259474,-0.557704
1413393240405760512,-1.30891,3.25925,1.83925,0.0564203,0.793414,-0.0373452,0.60491,0.586178,-0.00168775,-0.116322,-0.000310301,0.0196408,0.0617412,-0.178449,-0.252782,-0.550318
1413393240455760384,-1.27954,3.25894,1.83181,0.0521058,0.792734,-0.039622,0.606043,0.584607,-0.00707526,-0.156892,-0.000308514,0.0196363,0.0617794,-0.16925,-0.252548,-0.559937
1413393240505760512,-1.25048,3.25848,1.82277,0.0459093,0.792503,-0.0436842,0.606567,0.565287,-0.0093217,-0.168973,-0.000312898,0.0196263,0.0618007,-0.169243,-0.250274,-0.557276
1413393240555760384,-1.22237,3.2581,1.81502,0.0412937,0.791855,-0.0467545,0.607515,0.549496,-0.0178936,-0.131953,-0.000325261,0.019632,0.0618194,-0.183362,-0.25397,-0.554944
1413393240605760512,-1.19523,3.25679,1.81001,0.037638,0.791432,-0.049328,0.6081,0.524274,-0.0266441,-0.0853112,-0.000324113,0.0196447,0.0618473,-0.198898,-0.258056,-0.566977
1413393240655760384,-1.16843,3.25509,1.80757,0.0367618,0.791539,-0.0505656,0.607913,0.540424,-0.0399341,-0.0280155,-0.0003401,0.0196623,0.0618613,-0.202397,-0.259886,-0.564649
1413393240705760512,-1.14118,3.25284,1.80964,0.0378411,0.791724,-0.0511744,0.607555,0.546528,-0.0525763,0.103898,-0.000354553,0.0196787,0.0618792,-0.209772,-0.262829,-0.553515
1413393240755760384,-1.11405,3.25026,1.81671,0.0420301,0.790902,-0.0499692,0.60845,0.529052,-0.0522286,0.149176,-0.000357709,0.0196897,0.0619117,-0.219817,-0.261487,-0.554296
1413393240805760512,-1.08762,3.24759,1.82457,0.046598,0.789289,-0.0486362,0.610316,0.526995,-0.0587212,0.168938,-0.000360157,0.0197084,0.0619349,-0.230318,-0.266428,-0.556566
1413393240855760384,-1.06104,3.24504,1.83209,0.0523378,0.787627,-0.0461712,0.612187,0.524889,-0.0568077,0.141325,-0.000367649,0.0197289,0.0619547,-0.239948,-0.262464,-0.549293
1413393240905760512,-1.03449,3.24191,1.83774,0.055735,0.784778,-0.0455807,0.615581,0.516076,-0.073113,0.0906778,-0.000373993,0.0197625,0.061989,-0.245229,-0.261977,-0.549753
1413393240955760384,-1.00904,3.23863,1.84069,0.0591313,0.781845,-0.0451092,0.619021,0.489382,-0.0723477,0.0269846,-0.000380456,0.0197689,0.0620173,-0.246899,-0.269646,-0.555859
1413393241005760512,-0.984417,3.23536,1.84053,0.0615339,0.779091,-0.0447614,0.622276,0.487418,-0.0682794,-0.0221256,-0.000394344,0.0197514,0.0620574,-0.24427,-0.270681,-0.557606
1413393241055760384,-0.959838,3.232,1.83794,0.0617844,0.77664,-0.0460143,0.625216,0.475184,-0.0718098,-0.0729391,-0.000404015,0.0197488,0.0620866,-0.246405,-0.264899,-0.555626
1413393241105760512,-0.936186,3.22901,1.83224,0.0589169,0.775721,-0.0492876,0.626383,0.456496,-0.0597115,-0.140436,-0.000406098,0.0197652,0.0621148,-0.244755,-0.259245,-0.551495
1413393241155760384,-0.913862,3.22635,1.82417,0.0541612,0.775554,-0.0538569,0.626643,0.428293,-0.0595988,-0.194368,-0.000420681,0.0197685,0.062146,-0.241952,-0.262005,-0.556878
1413393241205760512,-0.89259,3.22349,1.81386,0.0492855,0.776219,-0.0583919,0.625816,0.413698,-0.0605814,-0.216776,-0.000438357,0.0197653,0.062169,-0.246259,-0.263707,-0.546519
1413393241255760384,-0.872557,3.22011,1.80304,0.0450864,0.777412,-0.0628676,0.624216,0.38819,-0.0701248,-0.222581,-0.000430891,0.0197782,0.0621851,-0.243062,-0.25496,-0.553747
1413393241305760512,-0.853576,3.21642,1.79237,0.0419021,0.779667,-0.066656,0.621226,0.370076,-0.0860091,-0.206243,-0.000433201,0.0197909,0.0622109,-0.244184,-0.253118,-0.559882
1413393241355760384,-0.835276,3.21194,1.78183,0.0419321,0.785129,-0.0684351,0.61411,0.35417,-0.0983324,-0.203523,-0.000442805,0.0198174,0.062237,-0.239367,-0.251086,-0.565702
1413393241405760512,-0.817352,3.20668,1.77239,0.0417811,0.788864,-0.0700596,0.609131,0.347279,-0.123032,-0.193037,-0.000439059,0.0198228,0.0622701,-0.234647,-0.255807,-0.56394
1413393241455760384,-0.799663,3.20011,1.76363,0.0446145,0.79163,-0.0697824,0.605361,0.340449,-0.145492,-0.159018,-0.000458505,0.0198136,0.062287,-0.230653,-0.260809,-0.568419
1413393241505760512,-0.782354,3.19305,1.75625,0.0491805,0.792909,-0.0675482,0.603585,0.336132,-0.1476,-0.125426,-0.000465901,0.019834,0.0623205,-0.227655,-0.254235,-0.567425
1413393241555760384,-0.7649,3.18542,1.75018,0.0544946,0.792471,-0.0646933,0.604016,0.339231,-0.169783,-0.120581,-0.000471273,0.0198406,0.0623425,-0.227864,-0.258754,-0.561112
1413393241605760512,-0.74769,3.17714,1.74432,0.0603893,0.79078,-0.0612182,0.60603,0.34287,-0.166612,-0.120214,-0.00048381,0.0198369,0.062377,-0.225882,-0.257321,-0.562414
1413393241655760384,-0.730585,3.16912,1.73865,0.0647671,0.789634,-0.0581208,0.607376,0.341566,-0.150706,-0.110817,-0.000480621,0.019849,0.0623987,-0.227428,-0.260441,-0.560136
1413393241705760512,-0.713043,3.16161,1.73312,0.0693676,0.788242,-0.0548787,0.608975,0.343476,-0.149058,-0.115623,-0.000488536,0.0198567,0.0624227,-0.232249,-0.262693,-0.55692
1413393241755760384,-0.695587,3.15454,1.72714,0.0715311,0.788042,-0.0535601,0.609101,0.344078,-0.139097,-0.108464,-0.00049796,0.0198685,0.0624561,-0.229591,-0.260863,-0.555276
1413393241805760512,-0.678411,3.14799,1.7213,0.0736401,0.788893,-0.0515772,0.607919,0.340918,-0.117806,-0.112955,-0.000494157,0.0198762,0.0624848,-0.224018,-0.263791,-0.559248
1413393241855760384,-0.661428,3.14211,1.71564,0.0746371,0.789588,-0.0502428,0.607006,0.341826,-0.110122,-0.104819,-0.000488029,0.0198917,0.0625011,-0.225897,-0.260337,-0.567303
1413393241905760512,-0.644454,3.13708,1.71118,0.0751776,0.788634,-0.0494462,0.608243,0.335253,-0.0863908,-0.0638224,-0.00049939,0.019916,0.0625199,-0.224155,-0.255891,-0.56576
1413393241955760384,-0.627978,3.1334,1.7077,0.0756775,0.786468,-0.0472583,0.611152,0.327847,-0.055867,-0.0641807,-0.00050247,0.0199257,0.0625254,-0.224023,-0.26195,-0.565934
1413393242005760512,-0.611709,3.1308,1.70418,0.0752394,0.784829,-0.0461038,0.613398,0.323712,-0.0471058,-0.0635015,-0.000505967,0.0199507,0.0625428,-0.222474,-0.261343,-0.568879
1413393242055760384,-0.595777,3.12936,1.70177,0.0752377,0.782031,-0.0442027,0.6171,0.31312,-0.0114217,-0.0424505,-0.00051281,0.0199659,0.0625607,-0.221405,-0.259467,-0.574582
1413393242105760512,-0.580531,3.12914,1.69963,0.0749257,0.779533,-0.042275,0.620426,0.297251,0.0071152,-0.0351416,-0.000495904,0.0199613,0.0625937,-0.217583,-0.256477,-0.575326
1413393242155760384,-0.566349,3.12987,1.69807,0.0725036,0.775894,-0.0423458,0.625251,0.276201,0.0190935,-0.0282504,-0.000494167,0.0199623,0.0626217,-0.222752,-0.256233,-0.580091
1413393242205760512,-0.553297,3.13164,1.69682,0.069076,0.771933,-0.0426446,0.6305,0.247289,0.0539708,-0.0189602,-0.00049719,0.0199544,0.0626371,-0.230026,-0.255503,-0.574805
1413393242255760384,-0.541729,3.13408,1.69584,0.0671007,0.769384,-0.0424534,0.633833,0.215582,0.0560358,-0.0143404,-0.000502589,0.0199608,0.062658,-0.232293,-0.260267,-0.569599
1413393242305760512,-0.531757,3.13723,1.69524,0.0648493,0.768257,-0.0433654,0.635371,0.178659,0.065113,-0.0121286,-0.00050866,0.0199444,0.0626775,-0.234342,-0.256219,-0.571377
1413393242355760384,-0.523523,3.14115,1.69431,0.0606805,0.769491,-0.0452113,0.634159,0.152399,0.0861114,-0.0269998,-0.000514029,0.0199569,0.0627109,-0.236155,-0.261651,-0.57441
1413393242405760512,-0.51698,3.14543,1.69327,0.0546803,0.772862,-0.0485325,0.630348,0.11675,0.0895436,-0.0236675,-0.000512483,0.0199739,0.06275,-0.237452,-0.259825,-0.572434
1413393242455760384,-0.511724,3.14998,1.69213,0.047861,0.778117,-0.0527567,0.624068,0.0926909,0.0915174,-0.0212457,-0.000515749,0.0199899,0.0627774,-0.234378,-0.256596,-0.566388
1413393242505760512,-0.507677,3.15436,1.69115,0.0403644,0.784373,-0.0575948,0.616289,0.0717106,0.0846951,-0.0294895,-0.000512742,0.019986,0.0627934,-0.234568,-0.258277,-0.568807
1413393242555760384,-0.504323,3.15808,1.69059,0.0347759,0.789907,-0.0610573,0.609188,0.0638301,0.0613002,0.00427684,-0.000537427,0.0200026,0.0628084,-0.240007,-0.262002,-0.565765
1413393242605760512,-0.501286,3.16066,1.69089,0.0305635,0.794228,-0.0638719,0.60348,0.0590112,0.0308779,0.0160502,-0.000538755,0.0200135,0.0628375,-0.244713,-0.260203,-0.55981
1413393242655760384,-0.497964,3.16172,1.69198,0.0285574,0.797074,-0.0648892,0.599706,0.068578,0.00849517,0.0393092,-0.000549387,0.0200136,0.0628503,-0.247351,-0.269526,-0.554173
1413393242705760512,-0.493985,3.16135,1.69382,0.0262834,0.797997,-0.0664595,0.59841,0.0806294,-0.0347348,0.0418145,-0.000590015,0.0200047,0.0628814,-0.247694,-0.27188,-0.552713
1413393242755760384,-0.489485,3.15935,1.69625,0.0223636,0.797765,-0.0677857,0.598729,0.0883676,-0.0574111,0.0694323,-0.000576781,0.0200069,0.0629018,-0.251692,-0.268264,-0.544903
1413393242805760512,-0.484381,3.15574,1.69953,0.0209823,0.797181,-0.0660788,0.599747,0.0982741,-0.0964107,0.0726907,-0.000584679,0.0200093,0.0629126,-0.253616,-0.276657,-0.547502
1413393242855760384,-0.479223,3.15045,1.70329,0.0213876,0.796791,-0.061503,0.600737,0.102913,-0.123909,0.0935378,-0.000598517,0.0200099,0.0629343,-0.247558,-0.270811,-0.539564
1413393242905760512,-0.473188,3.14421,1.708,0.0269581,0.796706,-0.0512078,0.60159,0.112739,-0.137617,0.0861757,-0.0005955,0.0200131,0.062954,-0.249335,-0.275127,-0.545428
1413393242955760384,-0.467087,3.13714,1.71275,0.0308574,0.798199,-0.0413243,0.600183,0.111433,-0.165972,0.108874,-0.000607463,0.0200242,0.0629753,-0.248881,-0.278619,-0.537928
1413393243005760512,-0.460848,3.12948,1.71826,0.0330422,0.800303,-0.0308129,0.597892,0.123228,-0.159214,0.115229,-0.000608964,0.0200365,0.0630094,-0.246922,-0.273662,-0.531438
1413393243055760384,-0.454167,3.12157,1.72424,0.0330737,0.802149,-0.0192674,0.595896,0.134786,-0.161572,0.107334,-0.000610846,0.0200498,0.0630392,-0.243251,-0.281755,-0.52832
1413393243105760512,-0.447025,3.11375,1.73027,0.0310023,0.804096,-0.00842499,0.593631,0.149675,-0.164542,0.123305,-0.000620077,0.020061,0.0630561,-0.241475,-0.285709,-0.522242
1413393243155760384,-0.439082,3.10664,1.73704,0.0261022,0.804495,0.00287198,0.593379,0.16899,-0.1344,0.143015,-0.000616756,0.0200667,0.0630932,-0.236849,-0.28522,-0.515143
1413393243205760512,-0.430141,3.10052,1.74494,0.0201169,0.802316,0.0144034,0.596387,0.185605,-0.125766,0.16864,-0.000631969,0.0200835,0.0631108,-0.230017,-0.290672,-0.513903
1413393243255760384,-0.420524,3.09443,1.75381,0.0147531,0.797814,0.0239886,0.602246,0.193563,-0.138026,0.167877,-0.000631271,0.0200851,0.0631483,-0.226376,-0.293221,-0.513395
1413393243305760512,-0.410672,3.08839,1.76117,0.0101114,0.792964,0.0331565,0.608281,0.198712,-0.110602,0.11676,-0.000635261,0.0200744,0.0631617,-0.216035,-0.304524,-0.515463
1413393243355760384,-0.400635,3.0828,1.76543,0.00449479,0.789228,0.0399467,0.612783,0.19853,-0.124319,0.0667156,-0.000635192,0.0200968,0.0632005,-0.216512,-0.303664,-0.503807
1413393243405760512,-0.391116,3.07713,1.7678,0.000575806,0.785532,0.0454944,0.617146,0.182702,-0.12166,0.0189162,-0.00064326,0.0200942,0.0632145,-0.214645,-0.306918,-0.504974
1413393243455760384,-0.382236,3.07203,1.76785,-0.00335498,0.783293,0.050703,0.619572,0.166922,-0.106768,-0.0197131,-0.000647369,0.0200856,0.0632602,-0.217047,-0.309706,-0.499476
1413393243505760512,-0.374024,3.06699,1.76553,-0.00691362,0.781379,0.0547363,0.621613,0.150867,-0.111143,-0.0841325,-0.000657881,0.0200899,0.0632898,-0.215264,-0.310416,-0.499767
1413393243555760384,-0.366621,3.06218,1.75998,-0.0101924,0.780459,0.0579863,0.622429,0.131166,-0.110356,-0.127487,-0.000668505,0.0200963,0.0633304,-0.213522,-0.318691,-0.494561
1413393243605760512,-0.360364,3.05694,1.75307,-0.0122072,0.780315,0.0607813,0.622306,0.11485,-0.107209,-0.136438,-0.000671016,0.0201177,0.0633522,-0.21019,-0.320019,-0.493678
1413393243655760384,-0.355195,3.05182,1.74577,-0.0135302,0.780709,0.0631575,0.621548,0.0928469,-0.100776,-0.147003,-0.000680871,0.0200888,0.0633759,-0.206536,-0.32437,-0.485037
1413393243705760512,-0.351282,3.04719,1.73881,-0.0138601,0.78204,0.0655657,0.619615,0.0716272,-0.0862689,-0.116516,-0.00068261,0.0201159,0.0634002,-0.205864,-0.323846,-0.481255
1413393243755760384,-0.348357,3.04306,1.73283,-0.0145385,0.783622,0.0669941,0.617444,0.0449321,-0.0842064,-0.105004,-0.000700632,0.0201125,0.0634247,-0.202281,-0.327704,-0.483606
1413393243805760512,-0.346477,3.03943,1.72829,-0.0140073,0.785205,0.0686248,0.615262,0.0193112,-0.075899,-0.0753837,-0.000697767,0.0201249,0.0634578,-0.203609,-0.324882,-0.476644
1413393243855760384,-0.345851,3.03619,1.72471,-0.0156218,0.78589,0.0688163,0.614327,0.00413904,-0.0627647,-0.0660414,-0.000715591,0.0201173,0.0634892,-0.200831,-0.331087,-0.469674
1413393243905760512,-0.346147,3.03304,1.72209,-0.0151531,0.786218,0.069803,0.613808,-0.012291,-0.0602268,-0.0328222,-0.000728356,0.0201209,0.0635114,-0.196138,-0.340502,-0.47253
1413393243955760384,-0.347089,3.03044,1.72033,-0.0152839,0.786212,0.0704286,0.61374,-0.0280525,-0.0507495,-0.0246046,-0.000729366,0.0201265,0.0635322,-0.196767,-0.346076,-0.466698
1413393244005760512,-0.348881,3.02829,1.71921,-0.0152944,0.786518,0.0708741,0.613297,-0.0382067,-0.0398421,-0.0206606,-0.000751387,0.0201303,0.0635509,-0.187982,-0.345463,-0.458768
1413393244055760384,-0.351081,3.02662,1.71902,-0.0139523,0.786177,0.0716234,0.613679,-0.0504932,-0.0288436,-0.00196858,-0.00074457,0.0201255,0.063583,-0.189269,-0.348163,-0.463247
1413393244105760512,-0.354178,3.02538,1.71922,-0.0130335,0.786413,0.0722704,0.613321,-0.0672676,-0.0145748,0.0180494,-0.000747689,0.0201293,0.0636121,-0.190702,-0.352833,-0.468087
1413393244155760384,-0.358054,3.02514,1.71956,-0.0126394,0.786575,0.0736356,0.612959,-0.0848793,-0.000976493,-0.00252613,-0.000755937,0.0201424,0.0636295,-0.197068,-0.363034,-0.468787
1413393244205760512,-0.362571,3.02574,1.71948,-0.0147546,0.786432,0.0759337,0.612814,-0.0957139,0.0257925,-4.69664e-05,-0.000754065,0.0201428,0.0636617,-0.194032,-0.369521,-0.464386
1413393244255760384,-0.367726,3.0275,1.71989,-0.0169436,0.786677,0.0805969,0.611847,-0.110263,0.0378908,0.00369873,-0.000757854,0.0201367,0.0636874,-0.191591,-0.36912,-0.462434
1413393244305760512,-0.37319,3.0303,1.72056,-0.019863,0.786975,0.0866586,0.610546,-0.12217,0.0551602,0.0140652,-0.000767435,0.0201434,0.0637003,-0.203568,-0.3776,-0.468346
1413393244355760384,-0.379607,3.03353,1.72058,-0.0244374,0.787112,0.0935065,0.609192,-0.128,0.0824114,-0.00161111,-0.000780899,0.0201478,0.0637229,-0.222564,-0.386089,-0.470761
1413393244405760512,-0.386216,3.03738,1.71966,-0.0293473,0.785893,0.0990273,0.609677,-0.12867,0.0763543,-0.0383845,-0.000768965,0.0201498,0.0637578,-0.237039,-0.379286,-0.464734
1413393244455760384,-0.393208,3.04162,1.71707,-0.0349707,0.78423,0.103143,0.610837,-0.14306,0.0898461,-0.0806033,-0.000764132,0.020154,0.0637711,-0.245091,-0.378058,-0.458966
1413393244505760512,-0.400527,3.0461,1.71135,-0.0405888,0.783395,0.106685,0.610953,-0.151556,0.0962094,-0.14117,-0.000763155,0.0201635,0.0638089,-0.234108,-0.37983,-0.443117
1413393244555760384,-0.408414,3.05028,1.70217,-0.0457544,0.782288,0.109094,0.611581,-0.161485,0.0775786,-0.20367,-0.000756119,0.0201787,0.0638318,-0.234096,-0.383424,-0.432543
1413393244605760512,-0.416475,3.05444,1.691,-0.0502325,0.782502,0.111455,0.610529,-0.165336,0.0855348,-0.233016,-0.000765389,0.0201744,0.0638501,-0.230323,-0.389663,-0.42651
1413393244655760384,-0.424938,3.05881,1.68017,-0.0544056,0.782798,0.113396,0.609433,-0.164747,0.087104,-0.198228,-0.000771384,0.0201872,0.0638767,-0.224073,-0.388814,-0.420005
1413393244705760512,-0.433888,3.06324,1.67315,-0.0574172,0.78211,0.115424,0.609659,-0.206277,0.0773513,-0.124046,-0.000772759,0.0202041,0.0638851,-0.225048,-0.393135,-0.420864
1413393244755760384,-0.44469,3.0669,1.66653,-0.0623921,0.783004,0.11493,0.608115,-0.222683,0.0692402,-0.10522,-0.00078097,0.0202142,0.0639236,-0.222284,-0.398867,-0.412449
1413393244805760512,-0.456015,3.07037,1.66321,-0.0677371,0.783095,0.113723,0.607653,-0.231098,0.068619,-0.032041,-0.000782902,0.0202075,0.0639493,-0.216058,-0.397959,-0.413159
1413393244855760384,-0.468161,3.07363,1.66345,-0.0714121,0.783992,0.112912,0.606224,-0.257885,0.0648033,0.0559533,-0.000786803,0.0202053,0.0639792,-0.210441,-0.396808,-0.407258
1413393244905760512,-0.480214,3.07662,1.66838,-0.0741348,0.784013,0.111731,0.606089,-0.239747,0.0498242,0.142803,-0.000789503,0.0201965,0.0640014,-0.208518,-0.398365,-0.403124
1413393244955760384,-0.492318,3.07895,1.67737,-0.0743892,0.783863,0.11196,0.60621,-0.264463,0.0328571,0.205069,-0.000786539,0.0201987,0.0640206,-0.20824,-0.389459,-0.400946
1413393245005760512,-0.505712,3.08003,1.68636,-0.0717355,0.785263,0.113625,0.604405,-0.270224,0.00814086,0.187373,-0.000793548,0.0202072,0.0640512,-0.206136,-0.395263,-0.401895
1413393245055760384,-0.519056,3.08015,1.69465,-0.0694848,0.78759,0.114256,0.601515,-0.275163,-0.00771992,0.151365,-0.000798075,0.0202045,0.0640817,-0.202968,-0.400698,-0.400405
1413393245105760512,-0.532524,3.07963,1.70114,-0.0666381,0.790264,0.115699,0.598044,-0.269383,-0.0170738,0.0966167,-0.0007987,0.020201,0.0641097,-0.204092,-0.410254,-0.399088
1413393245155760384,-0.545363,3.07829,1.70479,-0.0648966,0.79338,0.115765,0.594084,-0.255602,-0.032401,0.0482246,-0.000809118,0.0202279,0.0641287,-0.207153,-0.417184,-0.410288
1413393245205760512,-0.557902,3.07637,1.70583,-0.0629131,0.796441,0.116149,0.590112,-0.246666,-0.0397078,0.00282971,-0.000819192,0.0202185,0.0641538,-0.203052,-0.414457,-0.408003
1413393245255760384,-0.569835,3.07423,1.70441,-0.0606713,0.797659,0.117188,0.588495,-0.236769,-0.0478939,-0.0525925,-0.000814449,0.0202091,0.0641886,-0.201128,-0.409122,-0.397924
1413393245305760512,-0.581244,3.0719,1.70021,-0.0585155,0.798337,0.118036,0.587624,-0.217675,-0.0426042,-0.109024,-0.00082266,0.0202127,0.0642077,-0.197904,-0.409588,-0.39987
1413393245355760384,-0.591717,3.06987,1.69381,-0.0559896,0.797688,0.119464,0.588463,-0.203137,-0.0325203,-0.149807,-0.00082675,0.0202062,0.0642318,-0.191704,-0.408944,-0.402831
1413393245405760512,-0.601044,3.06812,1.68547,-0.0540884,0.79664,0.120317,0.589884,-0.177597,-0.0369831,-0.180295,-0.00082395,0.0202097,0.0642558,-0.192901,-0.410481,-0.409752
1413393245455760384,-0.609831,3.06622,1.67532,-0.0516878,0.795006,0.121603,0.592036,-0.17373,-0.0354055,-0.220648,-0.000825281,0.0202044,0.0642885,-0.192678,-0.413451,-0.413563
1413393245505760512,-0.61847,3.06439,1.66325,-0.0497455,0.793423,0.122727,0.594091,-0.16375,-0.0284294,-0.245269,-0.000835951,0.0202178,0.0643041,-0.194168,-0.419018,-0.410062
1413393245555760384,-0.626506,3.06273,1.65136,-0.0476507,0.79128,0.123635,0.596925,-0.153844,-0.0296746,-0.239616,-0.000846241,0.0202251,0.0643209,-0.194314,-0.422917,-0.406698
1413393245605760512,-0.634245,3.06155,1.63958,-0.0456624,0.789266,0.124193,0.599626,-0.155973,-0.01461,-0.238634,-0.000840115,0.0202232,0.0643654,-0.192255,-0.431162,-0.416873
1413393245655760384,-0.642776,3.0612,1.62874,-0.0437941,0.787389,0.124634,0.602135,-0.165224,0.00132887,-0.231462,-0.000845734,0.0202245,0.0643932,-0.191049,-0.433284,-0.41836
1413393245705760512,-0.651275,3.0616,1.61864,-0.0409131,0.786165,0.125174,0.603824,-0.166863,0.0131146,-0.211001,-0.000850037,0.0202208,0.0644383,-0.190306,-0.432821,-0.423997
1413393245755760384,-0.659826,3.0624,1.60854,-0.0388549,0.786584,0.12446,0.603561,-0.171831,0.0280379,-0.20169,-0.000838023,0.020212,0.0644764,-0.183022,-0.434995,-0.428624
1413393245805760512,-0.668415,3.06422,1.59904,-0.037726,0.787313,0.122867,0.603008,-0.174518,0.0467559,-0.185987,-0.00084898,0.0202211,0.0645099,-0.182829,-0.439601,-0.425137
1413393245855760384,-0.677142,3.06683,1.59049,-0.0386014,0.78785,0.119935,0.602842,-0.178162,0.0583553,-0.162333,-0.000852001,0.0202247,0.0645445,-0.184228,-0.443148,-0.421341
1413393245905760512,-0.686255,3.06975,1.58254,-0.0403693,0.789488,0.116339,0.601286,-0.181348,0.0628559,-0.1635,-0.000839495,0.020229,0.0645674,-0.183066,-0.444965,-0.427742
1413393245955760384,-0.695567,3.0732,1.57528,-0.0441557,0.791278,0.111785,0.599528,-0.183682,0.074773,-0.154336,-0.000837039,0.0202365,0.0645902,-0.185149,-0.443441,-0.417155
