#timestamp, p_RS_R_x [m], p_RS_R_y [m], p_RS_R_z [m], q_RS_w [], q_RS_x [], q_RS_y [], q_RS_z [], v_RS_R_x [m s^-1], v_RS_R_y [m s^-1], v_RS_R_z [m s^-1], b_w_RS_S_x [rad s^-1], b_w_RS_S_y [rad s^-1], b_w_RS_S_z [rad s^-1], b_a_RS_S_x [m s^-2], b_a_RS_S_y [m s^-2], b_a_RS_S_z [m s^-2]
1413393216155760384,-1.07968,0.491999,1.33011,0.601038,-0.000980473,-0.799217,0.00239579,-0.00628158,-0.00297953,0.0114733,-0.000269583,0.00476235,0.0160347,-0.00329265,4.00183e-06,0.000999945
1413393216205760512,-1.0759,0.566121,1.33722,0.60076,-0.000328878,-0.799424,0.00294347,-0.00643893,0.000901834,0.00754252,-0.000223077,0.00483415,0.0163147,-0.00480365,8.62092e-06,0.00145827
1413393216255760384,-1.39122,1.18443,1.42593,0.59946,0.00820239,-0.800306,0.00950814,-0.0100967,0.0021078,0.0113114,-0.00021726,0.00493186,0.0165742,-0.00632786,2.01691e-05,0.00192624
1413393216305760512,-1.36746,1.08788,1.06905,0.597829,0.028413,-0.800746,0.0244934,-0.0027356,-0.0016219,0.00986446,-0.000207592,0.00501129,0.0169038,-0.0076487,3.95176e-06,0.00231439
1413393216355760384,-1.40143,1.13904,1.09384,0.597114,0.034028,-0.800906,0.0291105,0.00581126,0.00721629,0.00513742,-0.000175122,0.00513241,0.0170869,-0.00895978,3.54472e-06,0.00270238
1413393216405760512,-1.3947,1.13423,0.852014,0.596758,0.0265816,-0.801634,0.023569,0.00728693,-0.00322576,-0.00290802,-0.000179893,0.00518488,0.0172776,-0.0105427,-3.57586e-05,0.00306405
1413393216455760384,-1.39477,1.13307,1.50675,0.596493,0.0392372,-0.800994,0.0326525,0.000446328,0.00164555,0.0149533,-0.000211238,0.0052326,0.0175243,-0.0114284,4.94082e-05,0.00351731
1413393216505760512,-1.40139,1.13605,0.759478,0.595183,0.0225011,-0.803033,0.0197437,0.00896981,0.0139835,0.0129966,-0.000141586,0.00523019,0.0177085,-0.0133986,-8.56917e-05,0.00378907
1413393216555760384,-1.40318,1.14097,1.83902,0.593765,0.044381,-0.802622,0.0356682,0.00448922,0.0146238,-0.0176421,-0.000181617,0.00527419,0.0179486,-0.0138052,0.00013839,0.00445991
1413393216605760512,-1.37508,1.12312,1.67589,0.594137,0.0160225,-0.804043,0.0161089,0.00431488,0.0210477,-0.0135812,-0.000206203,0.005286,0.0181622,-0.016294,-9.42067e-05,0.00386128
1413393216655760384,-1.41426,1.15895,2.00401,0.593773,0.04601,-0.802439,0.0375485,0.00309895,0.00653055,0.0233241,-0.000167451,0.00536994,0.0184596,-0.0163431,0.000162975,0.00532656
1413393216705760512,-1.41656,1.16821,1.82652,0.594516,0.0497437,-0.80166,0.0376632,0.0168089,0.0195228,0.0353461,-0.000191909,0.00543138,0.0186646,-0.0175282,0.000283785,0.00538262
1413393216755760384,-1.42103,1.18218,1.87851,0.594751,0.0531976,-0.801305,0.0367729,0.0106508,0.0158402,0.0477236,-0.000201,0.00546203,0.0189277,-0.0185845,0.000334123,0.00588489
1413393216805760512,-1.42482,1.19146,1.92115,0.595436,0.0562259,-0.800611,0.0362906,0.0182325,0.00642123,0.0874671,-0.000205646,0.0055401,0.0191591,-0.0197862,0.000302438,0.00627737
1413393216855760384,-1.4312,1.20132,2.02409,0.596319,0.0587031,-0.799803,0.0356897,0.025171,0.00999854,0.0931165,-0.000204241,0.00559406,0.0194089,-0.0209318,0.00028274,0.00678051
1413393216905760512,-1.43176,1.20753,2.34541,0.598157,0.0611828,-0.798248,0.0355688,0.0359896,-0.000607037,0.128346,-0.000212774,0.00566326,0.0196428,-0.0220395,0.00028612,0.00721556
1413393216955760384,-1.38612,1.15506,2.01197,0.599354,0.0405622,-0.799293,0.0161199,0.0430367,-0.00333729,0.141684,-0.00020379,0.00575064,0.0197948,-0.0249512,0.00030143,0.00415621
1413393217005760512,-1.43377,1.21659,2.81413,0.597874,0.0641023,-0.798405,0.0314427,0.0593099,-0.00806596,0.159696,-0.000199514,0.00586214,0.0201106,-0.0243581,0.000260876,0.00786122
1413393217055760384,-1.37965,1.15271,1.47483,0.597016,0.0411679,-0.801063,0.013223,0.0683114,-0.0359475,0.224561,-0.000223141,0.00595521,0.0203045,-0.0273672,0.000187047,0.00365153
1413393217105760512,-1.42687,1.21424,2.64144,0.59498,0.0660852,-0.800402,0.0314444,0.0868338,-0.0342987,0.2745,-0.000226189,0.00605941,0.0205936,-0.0261052,0.000285666,0.00836538
1413393217155760384,-1.37277,1.15276,1.49138,0.594712,0.0421717,-0.802705,0.0142957,0.0927883,-0.062251,0.277769,-0.000211949,0.00610268,0.0207635,-0.0292429,0.000178299,0.00304048
1413393217205760512,-1.41393,1.20943,2.30571,0.592939,0.0659614,-0.801907,0.0319201,0.112383,-0.0659813,0.267198,-0.000202517,0.0061917,0.0210503,-0.0276299,0.000588858,0.00816764
1413393217255760384,-1.36555,1.15542,1.56317,0.594255,0.0453018,-0.802859,0.0150459,0.111054,-0.0814062,0.248158,-0.000137926,0.00619508,0.0212366,-0.0305288,0.000340314,0.0027008
1413393217305760512,-1.37291,1.1704,1.8054,0.593558,0.053703,-0.802754,0.0197911,0.126167,-0.0913479,0.211292,-0.000158025,0.00628776,0.021475,-0.0308485,0.000649032,0.00363378
1413393217355760384,-1.37418,1.17401,1.99242,0.592561,0.0570748,-0.803199,0.0220528,0.140083,-0.106251,0.177311,-0.000177257,0.00633827,0.0216862,-0.0314444,0.000718561,0.00408669
1413393217405760512,-1.37014,1.17435,2.13337,0.591526,0.0588115,-0.803821,0.0225878,0.159577,-0.108304,0.163848,-0.000184912,0.0063729,0.0219063,-0.0321656,0.000861488,0.00444199
1413393217455760384,-1.36339,1.17146,2.26097,0.590525,0.0592145,-0.804514,0.0230427,0.173726,-0.130814,0.145678,-0.000184199,0.00646354,0.0221421,-0.0330909,0.00103546,0.00476937
1413393217505760512,-1.35505,1.16718,2.24259,0.590043,0.0613086,-0.804691,0.0237353,0.179887,-0.151543,0.131362,-0.00020494,0.00651485,0.0223178,-0.0338047,0.00137541,0.0048968
1413393217555760384,-1.34828,1.16314,2.23597,0.590028,0.0624282,-0.8046,0.0242738,0.202445,-0.148434,0.106228,-0.000243209,0.00659185,0.02257,-0.0345364,0.00148577,0.00524603
1413393217605760512,-1.34284,1.16321,2.30419,0.590083,0.0661487,-0.8042,0.0262379,0.212426,-0.180329,0.0865077,-0.00025007,0.00666364,0.0227499,-0.0349319,0.00175704,0.00603966
1413393217655760384,-1.33258,1.15489,2.38519,0.590001,0.066604,-0.804206,0.0267496,0.224544,-0.184815,0.0928168,-0.000250271,0.00671843,0.0229235,-0.0354088,0.00192473,0.0059655
1413393217705760512,-1.32195,1.14636,2.41661,0.590085,0.0670096,-0.804106,0.026911,0.232158,-0.203904,0.134788,-0.000287855,0.00677878,0.0231548,-0.0359753,0.00210002,0.0060381
1413393217755760384,-1.30975,1.13464,2.45807,0.590417,0.0666056,-0.803897,0.0268451,0.243439,-0.233525,0.178457,-0.000300083,0.00688745,0.0233467,-0.0367431,0.002312,0.00578927
1413393217805760512,-1.29758,1.12319,2.50199,0.590261,0.0664835,-0.80401,0.0272146,0.250449,-0.237806,0.209966,-0.00028372,0.00691186,0.0235076,-0.0372391,0.00247657,0.00548286
1413393217855760384,-1.28493,1.111,2.5024,0.590236,0.0657435,-0.804072,0.0277226,0.2605,-0.248792,0.233817,-0.000349952,0.00698493,0.0237691,-0.037754,0.00281116,0.00543208
1413393217905760512,-1.27211,1.09808,2.53554,0.590318,0.0657421,-0.803991,0.028307,0.263798,-0.274522,0.271758,-0.000337778,0.00706346,0.0239488,-0.0380666,0.00306192,0.00497418
1413393217955760384,-1.25878,1.08446,2.54664,0.590986,0.0654388,-0.803519,0.0284707,0.272668,-0.273026,0.291745,-0.000354093,0.00713835,0.0241904,-0.0387356,0.00328174,0.00484146
1413393218005760512,-1.24496,1.07037,2.5643,0.590622,0.0643493,-0.803833,0.029619,0.281942,-0.290481,0.269206,-0.000376799,0.00723765,0.0244221,-0.0392909,0.00346769,0.00464877
1413393218055760384,-1.23055,1.05543,2.58218,0.590842,0.0622444,-0.80372,0.0326438,0.287129,-0.301074,0.218053,-0.000379872,0.00726667,0.0245315,-0.0393732,0.00378631,0.00445114
1413393218105760512,-1.21605,1.04055,2.57878,0.590196,0.0596283,-0.804258,0.0358063,0.290403,-0.291604,0.191403,-0.000388233,0.0073103,0.0247593,-0.0397486,0.00403999,0.00404505
1413393218155760384,-1.20141,1.02537,2.59445,0.589699,0.0556667,-0.804656,0.0410385,0.296399,-0.309512,0.141165,-0.000413608,0.00733005,0.0249747,-0.0402557,0.00453983,0.00390546
1413393218205760512,-1.18618,1.00993,2.607,0.589438,0.0519435,-0.804755,0.0472673,0.305751,-0.302757,0.0895704,-0.000390959,0.0073743,0.0251027,-0.0408085,0.00490576,0.00360404
1413393218255760384,-1.1705,0.995403,2.61116,0.588101,0.0472944,-0.805658,0.0530679,0.316916,-0.266913,0.0405943,-0.000351756,0.00740967,0.0252919,-0.0414713,0.00529706,0.00332646
1413393218305760512,-1.1548,0.981653,2.6204,0.586347,0.0437822,-0.806833,0.0574532,0.310489,-0.268606,0.00468996,-0.000444463,0.00749612,0.0255208,-0.0425753,0.00580868,0.00327571
1413393218355760384,-1.13893,0.968796,2.63356,0.586079,0.0440061,-0.806991,0.0577954,0.315041,-0.237251,-0.0352788,-0.000370399,0.00748379,0.0256606,-0.043343,0.00629725,0.0030653
1413393218405760512,-1.12298,0.957178,2.67497,0.587225,0.0461542,-0.806357,0.0531526,0.316077,-0.197429,-0.0608694,-0.000367937,0.00754134,0.0258664,-0.0444871,0.0067967,0.003114
1413393218455760384,-1.1069,0.946835,2.68807,0.587874,0.0493982,-0.806018,0.0479511,0.320519,-0.201935,-0.0905533,-0.000452761,0.00760038,0.0260758,-0.0456863,0.00717795,0.00310501
1413393218505760512,-1.09053,0.937073,2.70356,0.589085,0.0527528,-0.805204,0.0429361,0.326381,-0.184241,-0.0848771,-0.00040348,0.00764812,0.0262353,-0.0470572,0.0076665,0.00314836
1413393218555760384,-1.07403,0.928002,2.7075,0.590011,0.0555547,-0.804611,0.0374504,0.332378,-0.16674,-0.0832911,-0.000410151,0.00767668,0.0264386,-0.0484487,0.00827302,0.00292133
1413393218605760512,-1.05719,0.918624,2.71283,0.591379,0.0580583,-0.803576,0.0341414,0.338306,-0.197076,-0.0753804,-0.000452247,0.00775411,0.0265994,-0.0497672,0.00887213,0.00265251
1413393218655760384,-1.04006,0.908967,2.71167,0.592276,0.0597883,-0.80288,0.0319136,0.347773,-0.189318,-0.0740382,-0.000449168,0.00780226,0.026743,-0.0511759,0.00959662,0.0024148
1413393218705760512,-1.02255,0.899242,2.70807,0.59238,0.0591971,-0.802861,0.0315619,0.354686,-0.187788,-0.0596595,-0.000457553,0.00785154,0.0269006,-0.0524288,0.0104883,0.00229681
1413393218755760384,-1.00453,0.88883,2.70755,0.590907,0.0603447,-0.803898,0.030593,0.362342,-0.218322,-0.0546088,-0.000495992,0.0079213,0.0270724,-0.0537411,0.0111751,0.00174837
1413393218805760512,-0.986228,0.878377,2.71621,0.586583,0.0598238,-0.807058,0.0316223,0.371688,-0.206036,-0.0506389,-0.000494527,0.00800812,0.0272813,-0.0552216,0.0121484,0.00133542
1413393218855760384,-0.967662,0.867674,2.73947,0.579572,0.0564706,-0.812219,0.0347582,0.369475,-0.208539,-0.041554,-0.000518227,0.00812373,0.0274304,-0.0566907,0.0129631,0.000832113
1413393218905760512,-0.949507,0.856784,2.71056,0.572432,0.0542992,-0.81727,0.0379813,0.359763,-0.22674,-0.0390621,-0.000579374,0.00813132,0.0276136,-0.0574637,0.0142925,0.000672619
1413393218955760384,-0.932073,0.846396,2.6946,0.566434,0.052501,-0.821453,0.0401523,0.342409,-0.20733,-0.0130887,-0.000568634,0.00818062,0.0277034,-0.058153,0.0156323,0.000385567
1413393219005760512,-0.915778,0.836497,2.67369,0.562643,0.050796,-0.824099,0.0414043,0.316542,-0.201856,0.00815095,-0.000615027,0.00825297,0.027913,-0.0591781,0.0170351,0.000607206
1413393219055760384,-0.900811,0.826219,2.70617,0.560594,0.0500511,-0.825446,0.0432256,0.28481,-0.20809,0.0288716,-0.000615007,0.00830989,0.0280213,-0.0599388,0.018246,-0.000224269
1413393219105760512,-0.887404,0.816444,2.74663,0.560977,0.0503268,-0.825162,0.0433535,0.253422,-0.192344,0.056857,-0.00060042,0.00833045,0.0281945,-0.0608499,0.0194688,-0.00100065
1413393219155760384,-0.875545,0.806763,2.782,0.562076,0.0500524,-0.82438,0.0443116,0.221061,-0.18682,0.0631748,-0.000648953,0.00842486,0.0283734,-0.0621766,0.0205315,-0.00147455
1413393219205760512,-0.865079,0.797452,2.80137,0.562897,0.0504226,-0.82376,0.0449953,0.194326,-0.188903,0.0793677,-0.000707582,0.00845623,0.0285055,-0.0630545,0.0216116,-0.00197114
1413393219255760384,-0.855911,0.78822,2.81388,0.564492,0.0509143,-0.822595,0.0457747,0.170199,-0.179183,0.10196,-0.000647498,0.00853499,0.0286454,-0.0639817,0.0230613,-0.0029196
1413393219305760512,-0.847974,0.779447,2.82188,0.565613,0.0518773,-0.821733,0.0463165,0.139299,-0.165168,0.109855,-0.000689832,0.00859734,0.0288422,-0.0646428,0.0244489,-0.00364109
1413393219355760384,-0.841754,0.771699,2.82086,0.5659,0.0523017,-0.821466,0.0470673,0.107983,-0.167055,0.119747,-0.000682716,0.00863969,0.0290092,-0.0654525,0.0259258,-0.00443614
1413393219405760512,-0.836832,0.764083,2.79598,0.566284,0.0522078,-0.821104,0.0488321,0.0846877,-0.15651,0.116746,-0.000637552,0.0087602,0.0291529,-0.0665728,0.0274195,-0.00532517
1413393219455760384,-0.833357,0.756926,2.78282,0.567436,0.0524837,-0.820284,0.0489553,0.0486106,-0.144749,0.0743535,-0.000681262,0.00885155,0.02933,-0.0673286,0.0285095,-0.00632136
1413393219505760512,-0.831578,0.750891,2.7986,0.568401,0.0531327,-0.819563,0.0491346,0.0217985,-0.142039,0.0337577,-0.000718043,0.00896419,0.0296025,-0.0685997,0.0296114,-0.00668537
1413393219555760384,-0.832136,0.817988,1.67811,0.568156,0.0749566,-0.81693,0.0648626,0.00653012,-0.131656,0.00480406,-0.000710246,0.00901525,0.0297894,-0.0664688,0.0347228,-0.000634923
1413393219605760512,-0.832981,0.815293,1.71072,0.569622,0.0762745,-0.815739,0.0654512,-0.00703579,-0.12134,0.00117507,-0.000755894,0.00908256,0.0299734,-0.0667015,0.0360301,-0.000707217
1413393219655760384,-0.832793,0.803675,1.67196,0.571933,0.0749353,-0.814287,0.0649213,-0.023662,-0.118476,0.0316939,-0.000708535,0.00914721,0.030136,-0.0677907,0.0371625,-0.0027114
1413393219705760512,-0.83431,0.795653,1.71988,0.574882,0.0746806,-0.812306,0.0639796,-0.0423901,-0.107517,0.0883421,-0.000694472,0.00925148,0.03032,-0.0686933,0.0382075,-0.00387378
1413393219755760384,-0.836422,0.785913,1.70492,0.578182,0.0742525,-0.810129,0.0623204,-0.0661866,-0.103859,0.156959,-0.000708552,0.00931294,0.0304449,-0.0695028,0.0391937,-0.00503773
1413393219805760512,-0.840268,0.773685,1.87983,0.581734,0.073664,-0.807909,0.058682,-0.0524317,-0.0920868,0.205811,-0.000710317,0.0093567,0.0305954,-0.0701449,0.0398005,-0.00608363
1413393219855760384,-0.842406,0.761918,1.8713,0.583081,0.0717609,-0.807276,0.0563224,-0.0483883,-0.0822385,0.311962,-0.000686185,0.00940683,0.0307961,-0.070885,0.0403421,-0.00642321
1413393219905760512,-0.84569,0.756365,1.81316,0.584643,0.0718393,-0.806258,0.054593,-0.0482102,-0.0837847,0.3311,-0.000707174,0.00948256,0.0309416,-0.0715449,0.0409221,-0.00653792
1413393219955760384,-0.847494,0.754637,1.96661,0.586103,0.0739489,-0.805066,0.0537041,-0.0532129,-0.0784921,0.329865,-0.000700075,0.009497,0.0311077,-0.0720532,0.0419248,-0.00669145
1413393220005760512,-0.850127,0.754623,2.09983,0.587237,0.0756797,-0.804035,0.0543504,-0.043042,-0.0784554,0.288766,-0.000686169,0.00957264,0.0312983,-0.0726707,0.0432604,-0.00651431
1413393220055760384,-0.854231,0.752781,2.33119,0.58859,0.0765014,-0.802977,0.0542023,-0.020866,-0.0788677,0.23435,-0.000714101,0.00960217,0.0314552,-0.0733407,0.0441897,-0.00623222
1413393220105760512,-0.856884,0.790242,1.77821,0.588148,0.0868757,-0.801694,0.0618178,-0.0158219,-0.0737658,0.210536,-0.000753616,0.00961355,0.0316255,-0.0706872,0.0468946,0.00152263
1413393220155760384,-0.857813,0.769278,2.24738,0.589359,0.0830265,-0.801509,0.057846,-0.0070203,-0.0813782,0.193438,-0.000686984,0.00966269,0.0317444,-0.073529,0.0478737,-0.00359903
1413393220205760512,-0.858065,0.762427,2.30929,0.59019,0.0827628,-0.801005,0.0567315,-0.00369456,-0.0845802,0.21919,-0.0006831,0.00968235,0.0318833,-0.0742827,0.0488598,-0.00377563
1413393220255760384,-0.858237,0.760235,2.28329,0.590727,0.0823989,-0.800617,0.0571327,-0.00113293,-0.077055,0.221612,-0.000678191,0.00973793,0.0319898,-0.0748918,0.0499395,-0.00321487
1413393220305760512,-0.857971,0.754722,2.33941,0.591351,0.0829663,-0.80019,0.0558377,0.0137399,-0.0928836,0.229936,-0.000679538,0.00976615,0.032174,-0.0755327,0.0508847,-0.00306658
1413393220355760384,-0.857124,0.751101,2.33339,0.591794,0.0830934,-0.799815,0.0563151,0.0205734,-0.0940796,0.236723,-0.000669319,0.00979483,0.0323561,-0.0761004,0.0521482,-0.00254856
1413393220405760512,-0.855809,0.745802,2.35756,0.591851,0.0823451,-0.799861,0.0561672,0.0295128,-0.0888425,0.253753,-0.000632148,0.00984666,0.0324349,-0.076521,0.0537565,-0.00272722
1413393220455760384,-0.853904,0.741731,2.34044,0.591115,0.0823129,-0.800413,0.0560986,0.0494002,-0.104618,0.250071,-0.000636751,0.00984303,0.0325948,-0.0770361,0.0549597,-0.00218053
1413393220505760512,-0.851438,0.735569,2.40617,0.589198,0.0816601,-0.801883,0.056231,0.055169,-0.105499,0.236859,-0.000655426,0.00992596,0.032799,-0.0782742,0.0553249,-0.00162937
1413393220555760384,-0.848389,0.73182,2.35906,0.587457,0.0816471,-0.803145,0.0564518,0.0666851,-0.0976357,0.196569,-0.000700864,0.00985682,0.0327172,-0.0778888,0.0558743,-0.000889333
1413393220605760512,-0.845045,0.72552,2.39874,0.586611,0.0808442,-0.803867,0.0561253,0.064637,-0.112475,0.137188,-0.000717988,0.00997848,0.0329879,-0.0788927,0.0565271,-0.000835883
1413393220655760384,-0.841815,0.721173,2.38642,0.587145,0.0812607,-0.8034,0.0566166,0.0653697,-0.116363,0.0792631,-0.000739331,0.00999939,0.0331643,-0.0794196,0.057218,-0.000161057
1413393220705760512,-0.838447,0.714713,2.41833,0.587595,0.0800084,-0.803176,0.0569097,0.0731578,-0.0980495,0.0253833,-0.000676686,0.0100838,0.0332481,-0.0802103,0.0582108,-0.000701884
1413393220755760384,-0.835033,0.709497,2.40395,0.586969,0.0783405,-0.80361,0.059515,0.0706302,-0.122846,-0.0260375,-0.000729016,0.0100802,0.0333686,-0.080694,0.0592234,-0.000437738
1413393220805760512,-0.83129,0.704304,2.40054,0.584399,0.0760229,-0.805424,0.0631753,0.0782922,-0.110995,-0.0197683,-0.000713687,0.010158,0.0334897,-0.0811198,0.0603177,-0.00052141
1413393220855760384,-0.827481,0.699396,2.40534,0.582411,0.0729271,-0.806866,0.0666783,0.0765405,-0.079816,0.0306921,-0.000745595,0.0102237,0.0336227,-0.0814864,0.0609802,-0.000824046
1413393220905760512,-0.82367,0.69495,2.42495,0.581127,0.071595,-0.807717,0.0689908,0.0868238,-0.0976432,0.083349,-0.000719039,0.0102719,0.0337776,-0.08127,0.062256,-0.00139385
1413393220955760384,-0.820283,0.690983,2.43887,0.579834,0.0708052,-0.80862,0.070089,0.0711188,-0.0701454,0.189607,-0.000729594,0.0103023,0.0339081,-0.0810222,0.0633592,-0.00167363
1413393221005760512,-0.817035,0.688195,2.45968,0.580503,0.0699318,-0.808327,0.0688038,0.0556848,-0.0335999,0.216027,-0.000718125,0.0103121,0.0340493,-0.0806441,0.0645425,-0.00208317
1413393221055760384,-0.814456,0.685847,2.48274,0.580075,0.0696705,-0.808724,0.0680056,0.0543411,-0.0447433,0.247085,-0.00072371,0.0103779,0.0341798,-0.0801441,0.0653958,-0.00296676
1413393221105760512,-0.812364,0.683898,2.51701,0.579082,0.0694831,-0.809485,0.0676079,0.0408868,-0.0240345,0.260919,-0.000702869,0.010402,0.0343101,-0.0795369,0.0665565,-0.00364608
1413393221155760384,-0.810594,0.686456,2.45864,0.578645,0.0698488,-0.809828,0.0668591,0.0383364,0.000397896,0.278594,-0.000707713,0.0104259,0.0344426,-0.0785237,0.0680725,-0.00352174
1413393221205760512,-0.808989,0.67981,2.61892,0.577786,0.0682814,-0.810812,0.0639129,0.024408,-0.011463,0.285577,-0.000683662,0.0104441,0.0345792,-0.0788705,0.0688201,-0.00498364
1413393221255760384,-0.807764,0.689393,2.24547,0.576098,0.0714607,-0.811655,0.0649644,0.0145983,0.00893847,0.282013,-0.000698405,0.010481,0.0347339,-0.0781847,0.0708284,-0.00378097
1413393221305760512,-0.80666,0.679062,2.53594,0.575026,0.0693538,-0.812968,0.0601513,0.00274126,0.0279129,0.267577,-0.000729527,0.0105042,0.0348556,-0.078879,0.0702149,-0.00612507
1413393221355760384,-0.807529,0.7023,2.18042,0.572572,0.0756215,-0.813862,0.0638124,-0.0139625,0.0137578,0.303044,-0.000755762,0.0105384,0.0349732,-0.0760184,0.0732739,-0.000121767
1413393221405760512,-0.808306,0.68608,1.92797,0.57199,0.0711522,-0.815065,0.058601,-0.0312269,0.0218057,0.304761,-0.000727802,0.0106063,0.0351038,-0.0783476,0.0722901,-0.00744125
1413393221455760384,-0.811125,0.708895,1.99134,0.570827,0.0786965,-0.815035,0.0606761,-0.0490845,0.031583,0.284586,-0.000774193,0.0106171,0.0352606,-0.0743916,0.0745632,0.00199337
1413393221505760512,-0.814473,0.712842,1.44833,0.570187,0.0791914,-0.815544,0.0591926,-0.0612055,0.0175717,0.219977,-0.000757129,0.0106792,0.0353465,-0.0743686,0.0747372,0.00254265
1413393221555760384,-0.816008,0.686821,2.14306,0.570888,0.0744492,-0.81603,0.0513768,-0.0744148,0.0200697,0.168025,-0.000716648,0.0107458,0.0354554,-0.0785157,0.0758808,-0.00940934
1413393221605760512,-0.823188,0.673182,2.23635,0.571783,0.071253,-0.815981,0.0465009,-0.101722,0.0127164,0.14974,-0.000661969,0.0107458,0.0355713,-0.0809901,0.0773504,-0.0183512
1413393221655760384,-0.828329,0.671376,2.27084,0.572534,0.0717042,-0.815485,0.0452524,-0.115815,-0.0101929,0.153968,-0.000659425,0.0107176,0.0355861,-0.0802975,0.0783291,-0.0200112
1413393221705760512,-0.834159,0.67192,2.25326,0.575651,0.0724019,-0.813233,0.0451186,-0.124816,-0.00763734,0.165874,-0.000681505,0.0107931,0.0357693,-0.0802613,0.0788185,-0.0199582
1413393221755760384,-0.840196,0.671047,2.26327,0.579105,0.0720277,-0.810758,0.0460582,-0.13007,-0.018623,0.159534,-0.000666484,0.0110279,0.0362113,-0.081033,0.0803489,-0.0207123
1413393221805760512,-0.84641,0.66971,2.27577,0.582294,0.0727056,-0.808358,0.0469644,-0.126223,-0.0386609,0.165072,-0.000598818,0.0109157,0.0361634,-0.0795432,0.0811789,-0.0211288
1413393221855760384,-0.852646,0.668072,2.29035,0.584266,0.0732822,-0.806876,0.0470599,-0.125374,-0.023882,0.157735,-0.000571603,0.0107813,0.0361041,-0.0778857,0.0818108,-0.0211864
1413393221905760512,-0.858818,0.666284,2.30064,0.585318,0.0731417,-0.806071,0.0479972,-0.120893,-0.0459835,0.147406,-0.000551107,0.0108061,0.036265,-0.0775853,0.0825377,-0.0215814
1413393221955760384,-0.86455,0.664121,2.30678,0.586637,0.0735838,-0.804966,0.0497187,-0.11668,-0.0476713,0.12656,-0.000425872,0.0111237,0.036757,-0.0793864,0.0848174,-0.0225568
1413393222005760512,-0.869955,0.661953,2.32159,0.586666,0.0733661,-0.804936,0.050187,-0.114672,-0.0319751,0.0765963,-0.000311608,0.0112876,0.0369171,-0.0797429,0.0866838,-0.0226882
1413393222055760384,-0.875335,0.65978,2.32997,0.587213,0.0733405,-0.804477,0.0511689,-0.107148,-0.0483919,0.0183651,-0.000262148,0.0113756,0.0370288,-0.0800773,0.0875131,-0.0223885
1413393222105760512,-0.880634,0.657177,2.33395,0.587694,0.0735787,-0.804005,0.0527139,-0.111256,-0.059617,-0.0431604,-0.00027352,0.011402,0.0371079,-0.0798654,0.0876338,-0.0221833
1413393222155760384,-0.886326,0.654434,2.33284,0.58765,0.0744014,-0.803951,0.0528714,-0.112158,-0.046151,-0.0993736,-0.000221711,0.0114951,0.0372406,-0.0801971,0.0877686,-0.0220738
1413393222205760512,-0.891701,0.651743,2.33156,0.587504,0.0748933,-0.803996,0.0531104,-0.103895,-0.0533468,-0.160713,-0.000217809,0.0115711,0.0374075,-0.0804283,0.0875643,-0.0221291
1413393222255760384,-0.896652,0.648947,2.3282,0.586218,0.0753922,-0.804828,0.0540103,-0.0943978,-0.0617021,-0.214157,-0.000235487,0.0116594,0.0375515,-0.0810972,0.0873806,-0.0223742
1413393222305760512,-0.901278,0.646229,2.32393,0.583924,0.0764202,-0.806437,0.0534067,-0.0940414,-0.0454949,-0.246546,-0.000222387,0.0117147,0.037799,-0.0817057,0.087191,-0.0228161
1413393222355760384,-0.905855,0.643568,2.31349,0.579745,0.0766728,-0.809433,0.0532528,-0.0936938,-0.0580846,-0.246682,-0.000241261,0.0117123,0.0378768,-0.0821698,0.0869947,-0.0238962
1413393222405760512,-0.910501,0.640543,2.30865,0.575702,0.0772307,-0.812234,0.0536579,-0.0979587,-0.0675888,-0.229505,-0.000329417,0.0117702,0.0379885,-0.0829073,0.0870674,-0.0252187
1413393222455760384,-0.91554,0.637213,2.32677,0.57254,0.0788936,-0.814423,0.0518576,-0.106783,-0.0599473,-0.2041,-0.000350838,0.011846,0.0381029,-0.0830757,0.0874888,-0.0274371
1413393222505760512,-0.921149,0.633621,2.33544,0.569706,0.078822,-0.816364,0.0526462,-0.123422,-0.0770089,-0.173624,-0.000367168,0.0118823,0.038243,-0.0834602,0.0883272,-0.0288367
1413393222555760384,-0.927358,0.630017,2.31125,0.56831,0.0780044,-0.817232,0.0554273,-0.125439,-0.0837464,-0.111303,-0.000374329,0.0120234,0.038368,-0.084264,0.0895045,-0.030263
1413393222605760512,-0.934206,0.626388,2.28285,0.567223,0.0780595,-0.817944,0.0559618,-0.154429,-0.0798121,-0.0792137,-0.000341684,0.0121476,0.0385667,-0.0843025,0.0902796,-0.0317738
1413393222655760384,-0.942207,0.622099,2.28066,0.565685,0.0781314,-0.818956,0.0566322,-0.180063,-0.0905256,-0.0175645,-0.00032181,0.0121751,0.0386092,-0.0836539,0.0904317,-0.0331897
1413393222705760512,-0.951686,0.617254,2.2988,0.565975,0.0792641,-0.818692,0.0559809,-0.200528,-0.0970515,0.032128,-0.000329744,0.0122106,0.0387071,-0.0829686,0.090057,-0.0338058
1413393222755760384,-0.962198,0.611873,2.32714,0.564353,0.0791003,-0.819749,0.0571017,-0.224777,-0.0970126,0.0658069,-0.000358856,0.0121376,0.038775,-0.0822839,0.0884542,-0.0338511
1413393222805760512,-0.973847,0.606396,2.35052,0.562528,0.0793289,-0.820953,0.0575038,-0.248975,-0.104029,0.11544,-0.0003744,0.0120961,0.0388668,-0.0817206,0.0869006,-0.0334703
1413393222855760384,-0.986481,0.601066,2.35192,0.560391,0.07956,-0.822353,0.0580348,-0.266031,-0.107354,0.143134,-0.000396757,0.0121106,0.0389565,-0.0811026,0.0858168,-0.0337186
1413393222905760512,-1.00052,0.595929,2.30722,0.559153,0.0798252,-0.823066,0.0594858,-0.292079,-0.111117,0.181899,-0.000366788,0.0121257,0.0390424,-0.0807754,0.0844178,-0.034023
1413393222955760384,-1.01591,0.590446,2.28885,0.557429,0.0808473,-0.824093,0.0600649,-0.324641,-0.116755,0.226239,-0.000377607,0.0121452,0.0391489,-0.0805514,0.0840256,-0.0345435
1413393223005760512,-1.03294,0.586242,2.13253,0.558522,0.0820813,-0.823237,0.0599742,-0.341209,-0.117799,0.235364,-0.000361396,0.0120812,0.0392408,-0.0786928,0.0819744,-0.0333916
1413393223055760384,-1.05088,0.580344,2.09665,0.560405,0.0835563,-0.821764,0.0605719,-0.367553,-0.12482,0.254303,-0.000325667,0.012069,0.0393849,-0.0776533,0.0802861,-0.0330179
1413393223105760512,-1.06992,0.574332,2.06129,0.562137,0.0844043,-0.820432,0.0614034,-0.392292,-0.120932,0.254414,-0.000370473,0.0120242,0.0395401,-0.0765929,0.0782411,-0.0330985
1413393223155760384,-1.08996,0.567993,2.08336,0.563789,0.085179,-0.819286,0.060472,-0.417338,-0.127007,0.257049,-0.000348581,0.0120059,0.0396513,-0.0763083,0.0784015,-0.0348242
1413393223205760512,-1.11097,0.56078,2.1342,0.565757,0.0877855,-0.817738,0.0593137,-0.432617,-0.138437,0.262701,-0.0003555,0.0119711,0.0398219,-0.0758273,0.0777089,-0.0367423
1413393223255760384,-1.133,0.553876,2.15085,0.566894,0.0888525,-0.816905,0.0583414,-0.449442,-0.136225,0.224572,-0.000391678,0.0119257,0.0398507,-0.0759474,0.0780981,-0.0375613
1413393223305760512,-1.15573,0.546516,2.15766,0.568481,0.0891028,-0.815756,0.0585854,-0.462445,-0.155713,0.189727,-0.000428865,0.011904,0.0398932,-0.0759449,0.0781596,-0.038302
1413393223355760384,-1.17921,0.538591,2.16358,0.569465,0.0896379,-0.815046,0.0580902,-0.478005,-0.164418,0.107223,-0.000459951,0.0118793,0.0399954,-0.0759216,0.0782503,-0.0388102
1413393223405760512,-1.20331,0.530277,2.16632,0.571058,0.0898701,-0.813901,0.0581571,-0.484414,-0.171174,0.00721328,-0.000459952,0.0118794,0.0399956,-0.0758408,0.0782561,-0.0392389
1413393223455760384,-1.22792,0.521698,2.17021,0.57314,0.0903961,-0.812442,0.0572549,-0.494806,-0.177933,-0.108605,-0.00082808,0.0118459,0.039994,-0.0756512,0.0786497,-0.0392761
1413393223505760512,-1.25273,0.512674,2.16217,0.575802,0.0904315,-0.810581,0.0568628,-0.500286,-0.183532,-0.208238,-0.000828049,0.0118461,0.0399943,-0.075502,0.0785876,-0.0396732
1413393223555760384,-1.27772,0.503256,2.15147,0.578471,0.0896262,-0.808752,0.0570991,-0.505536,-0.193824,-0.288037,-0.000938215,0.0118152,0.040016,-0.0752928,0.0786492,-0.0398268
1413393223605760512,-1.30281,0.493664,2.13743,0.581136,0.0892061,-0.806943,0.0562696,-0.493344,-0.191299,-0.360111,-0.00097864,0.0118035,0.0400292,-0.075082,0.0786825,-0.0401761
1413393223655760384,-1.32716,0.483986,2.12908,0.583385,0.0881683,-0.805505,0.0552363,-0.488812,-0.197698,-0.393615,-0.00105311,0.0118076,0.0400592,-0.0751844,0.0791755,-0.0406333
1413393223705760512,-1.35118,0.473786,2.14663,0.584437,0.0867993,-0.804955,0.0542941,-0.480126,-0.204083,-0.370242,-0.00107084,0.0118664,0.0401396,-0.0758792,0.0806428,-0.0411868
1413393223755760384,-1.37481,0.463308,2.1534,0.585373,0.0854674,-0.804488,0.0532198,-0.479026,-0.215165,-0.298131,-0.00110825,0.0119641,0.0401906,-0.0765553,0.082226,-0.0418755
1413393223805760512,-1.39766,0.452491,2.16129,0.586545,0.0832642,-0.803893,0.0528018,-0.466689,-0.233353,-0.242261,-0.00116911,0.012147,0.0401741,-0.077651,0.0847593,-0.0441946
1413393223855760384,-1.42049,0.441004,2.15379,0.585408,0.0817071,-0.804953,0.0517024,-0.442816,-0.240779,-0.147308,-0.00116254,0.0122663,0.0403376,-0.0779536,0.0863295,-0.0450829
1413393223905760512,-1.44265,0.428958,2.15739,0.585955,0.080861,-0.804812,0.0489497,-0.459636,-0.250616,-0.0804888,-0.00119508,0.0123653,0.0404593,-0.0778734,0.0873709,-0.0460584
1413393223955760384,-1.465,0.415792,2.18135,0.585672,0.0792787,-0.805259,0.0475466,-0.452357,-0.270846,-0.021081,-0.00127271,0.0123792,0.0405146,-0.0774221,0.0879663,-0.0472534
1413393224005760512,-1.48738,0.40205,2.1909,0.586609,0.0775156,-0.804796,0.0467371,-0.44862,-0.281115,0.0130506,-0.00133801,0.0123676,0.0406523,-0.0767486,0.0878884,-0.0478143
1413393224055760384,-1.50977,0.387896,2.19222,0.58594,0.0751052,-0.805518,0.0466351,-0.446496,-0.28927,0.00509484,-0.00133437,0.012412,0.0408914,-0.0764238,0.0880527,-0.0477073
1413393224105760512,-1.53176,0.37297,2.23655,0.587031,0.0726,-0.80495,0.0466911,-0.432202,-0.30509,-0.0416989,-0.0012836,0.0125441,0.0411039,-0.0757538,0.0897,-0.0479436
1413393224155760384,-1.55305,0.356967,2.2977,0.58761,0.0715009,-0.804669,0.0459256,-0.421219,-0.308724,-0.0719154,-0.00125958,0.0124975,0.0413288,-0.0749574,0.0879603,-0.0470149
1413393224205760512,-1.57366,0.340543,2.36416,0.587651,0.0728135,-0.804619,0.0441846,-0.40545,-0.316891,-0.139209,-0.00126056,0.01252,0.0415472,-0.0743365,0.08688,-0.0465424
1413393224255760384,-1.59409,0.324063,2.39481,0.588893,0.0719311,-0.80386,0.0429041,-0.398973,-0.325152,-0.171798,-0.00121569,0.0124935,0.0417724,-0.0735765,0.0848453,-0.0455829
1413393224305760512,-1.61368,0.307476,2.39734,0.590514,0.0704122,-0.8028,0.0429791,-0.38263,-0.331103,-0.238553,-0.0012007,0.0125647,0.0419218,-0.0733714,0.0838219,-0.0452751
1413393224355760384,-1.63296,0.2903,2.41818,0.590926,0.0714125,-0.802478,0.0416705,-0.384909,-0.334501,-0.290996,-0.00120706,0.0126062,0.0420574,-0.0727616,0.0825742,-0.0451345
1413393224405760512,-1.65205,0.273017,2.43868,0.590887,0.069988,-0.802713,0.040092,-0.383306,-0.333983,-0.335218,-0.00120206,0.0126951,0.0422349,-0.0726827,0.0809841,-0.0446634
1413393224455760384,-1.67105,0.256102,2.40703,0.591981,0.0661573,-0.802253,0.039648,-0.374454,-0.346088,-0.383009,-0.00116295,0.0127261,0.0423581,-0.0718423,0.0793477,-0.044427
1413393224505760512,-1.68951,0.239704,2.32977,0.592426,0.0610965,-0.802372,0.0386995,-0.362385,-0.338473,-0.43231,-0.00113399,0.0127753,0.0424894,-0.0712669,0.0780686,-0.0442702
1413393224555760384,-1.70743,0.223284,2.26918,0.592261,0.0535768,-0.803028,0.0387722,-0.35682,-0.337299,-0.465841,-0.00109827,0.0128336,0.0426505,-0.070764,0.077063,-0.044275
1413393224605760512,-1.72502,0.206907,2.21609,0.593352,0.0458444,-0.802758,0.0375779,-0.347474,-0.32869,-0.483188,-0.00107545,0.0129007,0.0427431,-0.070234,0.075983,-0.0442703
1413393224655760384,-1.74245,0.190942,2.17122,0.593496,0.0371344,-0.803176,0.0359483,-0.336261,-0.309818,-0.44207,-0.00104893,0.0129375,0.0428272,-0.0693305,0.0750216,-0.0442494
1413393224705760512,-1.75832,0.175729,2.12649,0.591977,0.0288485,-0.80474,0.0335417,-0.305772,-0.307357,-0.440186,-0.0010285,0.0129785,0.0429739,-0.0685186,0.0741345,-0.0437646
1413393224755760384,-1.77351,0.161111,2.10474,0.590427,0.0201309,-0.806226,0.0314844,-0.301544,-0.285484,-0.425044,-0.0010011,0.0130244,0.0430633,-0.0677676,0.073566,-0.0432863
1413393224805760512,-1.78775,0.147348,2.0904,0.589276,0.0119947,-0.807387,0.0271409,-0.266222,-0.2511,-0.406123,-0.00095415,0.0130773,0.0431931,-0.0671153,0.0731168,-0.0424912
1413393224855760384,-1.80068,0.134823,2.07547,0.587887,0.00361891,-0.808586,0.0237649,-0.252581,-0.251893,-0.354142,-0.000936548,0.0131409,0.0432679,-0.066153,0.0729881,-0.0417123
1413393224905760512,-1.81354,0.122489,2.09879,0.587518,-0.00234781,-0.808955,0.0202189,-0.256559,-0.232535,-0.292635,-0.000876272,0.0131581,0.0433486,-0.0650607,0.0728038,-0.0406359
1413393224955760384,-1.82534,0.111364,2.0969,0.586226,-0.00821743,-0.809923,0.0172174,-0.23103,-0.200192,-0.226007,-0.000826256,0.013187,0.0434869,-0.0641628,0.0728827,-0.0396087
1413393225005760512,-1.83678,0.101596,2.0479,0.585168,-0.011585,-0.810722,0.0132264,-0.232015,-0.209165,-0.148643,-0.000826292,0.0132028,0.0435461,-0.06336,0.0731721,-0.0388263
1413393225055760384,-1.84859,0.0919594,2.02987,0.584051,-0.0131552,-0.811557,0.00933716,-0.239012,-0.192445,-0.128585,-0.000787256,0.0132147,0.0436563,-0.0625978,0.0732918,-0.0379253
1413393225105760512,-1.86116,0.0829814,2.02643,0.583339,-0.0152929,-0.812062,0.00611828,-0.242181,-0.163854,-0.0551713,-0.000770114,0.0132005,0.0437313,-0.0617906,0.0734803,-0.037348
1413393225155760384,-1.87315,0.0744196,2.02824,0.58339,-0.0165071,-0.812017,0.00352446,-0.239068,-0.176233,-0.069666,-0.000733507,0.0132102,0.043811,-0.0611327,0.0736148,-0.0368203
1413393225205760512,-1.88492,0.0660788,2.02919,0.58275,-0.0181922,-0.812441,0.003416,-0.239763,-0.159317,-0.0550868,-0.000708428,0.0131917,0.0438854,-0.0608054,0.0738395,-0.0366114
1413393225255760384,-1.89651,0.0584791,2.02567,0.582086,-0.0187932,-0.812909,0.00141257,-0.228777,-0.144149,-0.0429666,-0.00066674,0.0131968,0.0439709,-0.0606987,0.0739169,-0.0364739
1413393225305760512,-1.90796,0.0511482,2.04237,0.581175,-0.0206468,-0.813517,0.000318581,-0.229173,-0.146001,-0.0652502,-0.000676143,0.0132189,0.044013,-0.0603487,0.0746588,-0.0364124
1413393225355760384,-1.91949,0.0447443,2.04506,0.581228,-0.0233762,-0.813403,-0.00212512,-0.220757,-0.114904,-0.0415351,-0.000646617,0.0132386,0.04411,-0.0605829,0.074679,-0.0366236
1413393225405760512,-1.93079,0.0391767,2.04555,0.58039,-0.0294213,-0.813801,-0.00319411,-0.231764,-0.0999981,-0.0183504,-0.000616223,0.0131872,0.0442431,-0.0606743,0.0748805,-0.0370799
1413393225455760384,-1.94303,0.034384,2.048,0.579351,-0.0362662,-0.814255,-0.00522279,-0.24902,-0.0936993,-0.00245482,-0.000604453,0.0131688,0.0443019,-0.0607334,0.0751474,-0.0376547
1413393225505760512,-1.95534,0.0303257,2.07066,0.579258,-0.0454153,-0.813843,-0.00764002,-0.242834,-0.05856,0.0116843,-0.000580954,0.013136,0.0443993,-0.0613438,0.0755147,-0.038373
1413393225555760384,-1.9676,0.0276258,2.08365,0.577536,-0.0551543,-0.814416,-0.0116934,-0.237853,-0.0397938,0.0238544,-0.000585921,0.0131386,0.0444675,-0.0618172,0.076046,-0.0391367
1413393225605760512,-1.9801,0.026402,2.08322,0.576703,-0.0663415,-0.814083,-0.0167829,-0.261434,-0.0156749,0.0560398,-0.000589163,0.013103,0.0444971,-0.0622228,0.0766124,-0.0398528
1413393225655760384,-1.9929,0.0264988,2.09251,0.576707,-0.0775883,-0.812919,-0.0234849,-0.255468,0.0215628,0.0661851,-0.000595706,0.013077,0.0445376,-0.0627067,0.0771946,-0.0404418
1413393225705760512,-2.00533,0.0280978,2.09626,0.576593,-0.0898235,-0.811474,-0.0313547,-0.252451,0.0479097,0.0894396,-0.000623816,0.0130436,0.0445454,-0.0630875,0.0775756,-0.0407772
1413393225755760384,-2.01785,0.0308333,2.10083,0.576567,-0.100109,-0.809805,-0.042001,-0.257093,0.0573776,0.0940588,-0.00064018,0.0129798,0.0445866,-0.063534,0.0780235,-0.0411862
1413393225805760512,-2.03012,0.0348093,2.10591,0.576753,-0.1099,-0.8077,-0.0538339,-0.240266,0.0944895,0.118677,-0.000640487,0.0129346,0.0446093,-0.0637962,0.0782473,-0.0414573
1413393225855760384,-2.04149,0.0395781,2.11072,0.574664,-0.11998,-0.806655,-0.0683678,-0.224105,0.102593,0.0583537,-0.000653828,0.0129162,0.0446307,-0.0643481,0.079114,-0.0420277
1413393225905760512,-2.05264,0.044872,2.08967,0.574495,-0.127053,-0.804691,-0.0792817,-0.220325,0.103449,-0.0361762,-0.000661861,0.0129113,0.0446912,-0.064992,0.0803908,-0.0428273
1413393225955760384,-2.06381,0.0501825,2.08544,0.572012,-0.13597,-0.80338,-0.0943136,-0.229032,0.109452,-0.143761,-0.000678395,0.0129103,0.0447134,-0.065585,0.081428,-0.0436546
1413393226005760512,-2.07511,0.0555267,2.07723,0.571588,-0.143932,-0.800625,-0.10757,-0.226376,0.104677,-0.218968,-0.000717051,0.0129084,0.0447403,-0.0658263,0.0820973,-0.0436074
1413393226055760384,-2.08658,0.0604793,2.06191,0.571397,-0.154674,-0.797211,-0.118474,-0.230913,0.094814,-0.237328,-0.000713286,0.0129328,0.0447948,-0.0662886,0.0831376,-0.0438073
1413393226105760512,-2.09794,0.064222,2.06911,0.571014,-0.16604,-0.794061,-0.125864,-0.232448,0.0695111,-0.233264,-0.000671499,0.0129957,0.0448446,-0.0668454,0.0848299,-0.04391
1413393226155760384,-2.10984,0.0676079,2.05803,0.571084,-0.177492,-0.790547,-0.131892,-0.239655,0.065451,-0.19716,-0.000713241,0.012977,0.0448855,-0.0673335,0.0857154,-0.0442875
1413393226205760512,-2.12182,0.07004,2.07507,0.570468,-0.188496,-0.787525,-0.13726,-0.237372,0.0416824,-0.133441,-0.000727187,0.0130203,0.0448878,-0.0679321,0.0869116,-0.0447382
1413393226255760384,-2.13437,0.0706701,2.19985,0.569275,-0.198926,-0.785337,-0.140002,-0.258887,0.0401534,-0.0635021,-0.000786009,0.0131762,0.0449798,-0.0695787,0.0893901,-0.0455797
1413393226305760512,-2.14708,0.072724,2.21408,0.568296,-0.207082,-0.783339,-0.143307,-0.24506,0.0423939,-0.0485219,-0.000776222,0.0131795,0.0450091,-0.0694244,0.0898977,-0.0451853
1413393226355760384,-2.15976,0.0733699,2.32007,0.566015,-0.215772,-0.782632,-0.143377,-0.257384,0.0353316,-0.010352,-0.000773201,0.0132494,0.0450286,-0.0698925,0.0917349,-0.0455315
1413393226405760512,-2.17238,0.0728264,2.51123,0.562506,-0.222345,-0.783116,-0.144498,-0.253224,0.0395869,-0.0217286,-0.000825443,0.013516,0.045098,-0.0719342,0.0948866,-0.0468116
1413393226455760384,-2.18505,0.0750535,2.507,0.558272,-0.228265,-0.784429,-0.144565,-0.25795,0.0436488,-0.051463,-0.000819204,0.0135227,0.0452315,-0.0715002,0.095384,-0.0463791
1413393226505760512,-2.19816,0.0769885,2.5437,0.554586,-0.232988,-0.785675,-0.144448,-0.271853,0.0502734,-0.104753,-0.000802291,0.0135126,0.0453367,-0.0710119,0.0954779,-0.0461359
1413393226555760384,-2.21176,0.0795422,2.55653,0.552176,-0.23698,-0.786298,-0.143801,-0.278161,0.0600598,-0.145375,-0.000709601,0.0136982,0.0454667,-0.0720696,0.0960669,-0.0457098
1413393226605760512,-2.22578,0.0829369,2.54465,0.549715,-0.240147,-0.787115,-0.143505,-0.28172,0.0801232,-0.175862,-0.000693623,0.0138251,0.0456024,-0.0731913,0.0963626,-0.0456342
1413393226655760384,-2.24028,0.0872796,2.53429,0.548547,-0.241815,-0.787215,-0.144618,-0.297543,0.0957743,-0.158926,-0.000667422,0.0139808,0.0457041,-0.0740977,0.0973032,-0.046037
1413393226705760512,-2.25593,0.0918218,2.57246,0.549309,-0.239355,-0.786452,-0.149875,-0.317318,0.112233,-0.152143,-0.000799366,0.0141174,0.0457597,-0.0755344,0.0993475,-0.0485421
1413393226755760384,-2.27199,0.097987,2.5639,0.55109,-0.236636,-0.784934,-0.155508,-0.322731,0.135298,-0.128852,-0.000839368,0.0141779,0.0458156,-0.0758386,0.0994115,-0.0490821
1413393226805760512,-2.28863,0.104467,2.55527,0.551688,-0.233478,-0.784431,-0.160612,-0.348029,0.122511,-0.109687,-0.000864743,0.0142276,0.0459285,-0.0758286,0.0994328,-0.0497456
1413393226855760384,-2.30605,0.110915,2.5462,0.552299,-0.230379,-0.784217,-0.164001,-0.356224,0.126153,-0.126632,-0.000888874,0.0142337,0.0460469,-0.0756355,0.0988014,-0.0500953
1413393226905760512,-2.32386,0.118007,2.49684,0.551993,-0.227237,-0.784509,-0.167967,-0.365789,0.12469,-0.106579,-0.000692262,0.0141949,0.0463254,-0.0741965,0.0975065,-0.0488135
1413393226955760384,-2.34268,0.123797,2.49832,0.551929,-0.225513,-0.784728,-0.169471,-0.386583,0.109962,-0.0847915,-0.000724918,0.0142203,0.0463835,-0.0743873,0.0969265,-0.0496063
1413393227005760512,-2.36219,0.129239,2.491,0.551967,-0.223769,-0.784992,-0.170437,-0.395808,0.104486,-0.0788151,-0.000705252,0.0142723,0.0464715,-0.0746253,0.0966929,-0.0502196
1413393227055760384,-2.38234,0.134446,2.47687,0.55281,-0.223364,-0.784568,-0.170188,-0.411996,0.0982171,-0.0671345,-0.000668411,0.0143623,0.0466018,-0.0749035,0.0967252,-0.050798
1413393227105760512,-2.40308,0.139405,2.44312,0.554475,-0.223375,-0.783545,-0.169468,-0.420392,0.0847861,-0.0667432,-0.000437341,0.0143938,0.0468319,-0.0744549,0.0962547,-0.0505739
1413393227155760384,-2.42434,0.14316,2.45905,0.556128,-0.22423,-0.782612,-0.167219,-0.428801,0.0778314,-0.0505077,-0.000523627,0.0144511,0.0469051,-0.0754025,0.0953395,-0.0511403
1413393227205760512,-2.446,0.146838,2.46182,0.557801,-0.225127,-0.781664,-0.164856,-0.433905,0.0728889,-0.0297023,-0.000540267,0.0144972,0.0469332,-0.0758592,0.0948691,-0.0519258
1413393227255760384,-2.46779,0.150208,2.47189,0.559983,-0.227515,-0.780185,-0.161146,-0.435228,0.0724829,-0.00523176,-0.000543276,0.014596,0.047052,-0.0765748,0.0940381,-0.0524322
1413393227305760512,-2.4895,0.153573,2.4785,0.560022,-0.22901,-0.780089,-0.159349,-0.43481,0.0699932,-0.0158089,-0.000565819,0.0146456,0.0471518,-0.0771677,0.0934112,-0.0531523
1413393227355760384,-2.51128,0.157283,2.4603,0.560985,-0.230318,-0.77926,-0.158124,-0.433422,0.0678648,-0.00527793,-0.000455223,0.0147113,0.047349,-0.0773607,0.0932762,-0.053501
1413393227405760512,-2.53297,0.160499,2.48523,0.560411,-0.231672,-0.779526,-0.156864,-0.430302,0.0765488,0.00117335,-0.000532092,0.0148103,0.0473784,-0.0789191,0.092379,-0.0537688
1413393227455760384,-2.55456,0.164358,2.48579,0.560376,-0.233332,-0.779327,-0.155515,-0.430508,0.082219,0.0023417,-0.000558983,0.0148302,0.0474253,-0.0792482,0.0918537,-0.0545079
1413393227505760512,-2.57612,0.16852,2.48808,0.560391,-0.234321,-0.779099,-0.155117,-0.428803,0.0864368,-2.49206e-05,-0.00056702,0.0148688,0.0475071,-0.0793903,0.0912839,-0.0552392
1413393227555760384,-2.59746,0.173352,2.48883,0.561302,-0.236441,-0.777782,-0.155214,-0.423819,0.103166,0.00561627,-0.000572144,0.0147811,0.0475718,-0.0788848,0.0910025,-0.0563348
1413393227605760512,-2.61854,0.178788,2.48726,0.561854,-0.239818,-0.776251,-0.155698,-0.416887,0.112079,0.00888711,-0.000588108,0.0147764,0.0476368,-0.0788053,0.0908004,-0.0571124
1413393227655760384,-2.63914,0.184762,2.49032,0.561433,-0.243421,-0.77502,-0.157748,-0.407378,0.128868,0.017085,-0.000596478,0.0148103,0.0476985,-0.0788369,0.0904549,-0.0577411
1413393227705760512,-2.65917,0.191513,2.49591,0.560239,-0.248587,-0.77368,-0.160487,-0.394831,0.146175,0.0131526,-0.000618298,0.0147795,0.0477547,-0.0785456,0.0902998,-0.058554
1413393227755760384,-2.67857,0.198844,2.50824,0.559303,-0.254854,-0.77168,-0.163524,-0.383759,0.158448,0.000435783,-0.000642,0.014746,0.0478643,-0.0775421,0.090366,-0.0597842
1413393227805760512,-2.69737,0.206955,2.50655,0.557536,-0.260443,-0.769976,-0.1687,-0.372907,0.164704,-0.0166754,-0.000642529,0.0147829,0.0478889,-0.0778308,0.0903136,-0.0601165
1413393227855760384,-2.71557,0.215507,2.51737,0.556813,-0.268799,-0.766842,-0.172222,-0.360488,0.183779,-0.0174055,-0.000623425,0.0146888,0.0479948,-0.0767127,0.0907308,-0.0613361
1413393227905760512,-2.73344,0.224729,2.52209,0.555266,-0.277048,-0.763888,-0.1772,-0.357052,0.189731,-0.00517788,-0.000611738,0.0146976,0.0480508,-0.0762215,0.0909079,-0.0620955
1413393227955760384,-2.75068,0.234472,2.52465,0.554587,-0.285734,-0.75983,-0.182886,-0.336169,0.201759,-0.00800377,-0.000599935,0.0147447,0.04812,-0.0762263,0.0909409,-0.0625135
1413393228005760512,-2.76691,0.245068,2.52485,0.552827,-0.295743,-0.755807,-0.188879,-0.312143,0.224333,-0.0243487,-0.000596053,0.0147321,0.0481726,-0.0761566,0.0910583,-0.0629996
1413393228055760384,-2.78235,0.256378,2.52428,0.550553,-0.305346,-0.751602,-0.196851,-0.309261,0.228868,-0.0325454,-0.000593638,0.0147506,0.0482132,-0.0763916,0.0911084,-0.0632527
1413393228105760512,-2.7973,0.268159,2.52266,0.548288,-0.315574,-0.747221,-0.203601,-0.29541,0.243158,-0.00915309,-0.000565474,0.0147736,0.0482538,-0.0766613,0.091119,-0.0634163
1413393228155760384,-2.8115,0.280633,2.52182,0.544589,-0.325198,-0.743526,-0.21175,-0.27559,0.254612,-0.03199,-0.000544688,0.014873,0.0483415,-0.0770419,0.0909688,-0.0633959
1413393228205760512,-2.82518,0.293481,2.52107,0.540773,-0.335101,-0.740001,-0.218338,-0.274644,0.259551,-0.0208002,-0.0004452,0.0149916,0.0483202,-0.0778455,0.0906833,-0.06286
1413393228255760384,-2.83853,0.30687,2.51986,0.536897,-0.342389,-0.737196,-0.225954,-0.264608,0.268371,-0.0128258,-0.000386436,0.0150934,0.0484345,-0.0782161,0.0906407,-0.0628268
1413393228305760512,-2.85166,0.320595,2.51991,0.533474,-0.34913,-0.734358,-0.232879,-0.260485,0.274698,-0.00721496,-0.000358588,0.0151374,0.0484993,-0.0779177,0.0907268,-0.0631344
1413393228355760384,-2.86468,0.33468,2.52031,0.530414,-0.355017,-0.731626,-0.239474,-0.261946,0.282737,0.00403094,-0.000329537,0.0151333,0.0485602,-0.0773694,0.0907957,-0.0635684
1413393228405760512,-2.87743,0.349226,2.52,0.527228,-0.361103,-0.728638,-0.24642,-0.24772,0.293988,0.0107414,-0.000245745,0.0151864,0.048647,-0.0771504,0.0908519,-0.0637543
1413393228455760384,-2.88981,0.364054,2.52201,0.52474,-0.368328,-0.724828,-0.252206,-0.244973,0.299978,0.0193457,-0.000183536,0.015229,0.0487079,-0.0768629,0.0909086,-0.0638914
1413393228505760512,-2.90215,0.378945,2.52538,0.523793,-0.37446,-0.720085,-0.258649,-0.253708,0.2946,0.0191508,-0.000103839,0.015298,0.0487756,-0.0766841,0.0909787,-0.0639016
1413393228555760384,-2.91431,0.393845,2.52633,0.52222,-0.381111,-0.715712,-0.264192,-0.234677,0.30241,0.0131448,-5.38003e-05,0.0153628,0.0487927,-0.0765367,0.0912544,-0.0640308
1413393228605760512,-2.92622,0.408777,2.52859,0.519127,-0.388178,-0.712327,-0.269102,-0.23705,0.300286,0.0161905,-3.53054e-05,0.0154273,0.048854,-0.0763925,0.09149,-0.0642279
1413393228655760384,-2.93829,0.423523,2.53145,0.517084,-0.394351,-0.709208,-0.27228,-0.243769,0.294677,0.0216052,-6.05783e-05,0.0155248,0.0488743,-0.0763921,0.091791,-0.0644819
1413393228705760512,-2.95018,0.438313,2.53182,0.514167,-0.398676,-0.70752,-0.275874,-0.231565,0.301018,0.0156248,-5.49406e-05,0.0155299,0.048923,-0.0753923,0.0917721,-0.0649338
1413393228755760384,-2.96214,0.45316,2.53189,0.511794,-0.403186,-0.705889,-0.277901,-0.241605,0.297088,0.0222154,-6.9332e-05,0.0155404,0.0489894,-0.0745738,0.0917893,-0.065313
1413393228805760512,-2.97439,0.468225,2.53909,0.509067,-0.407817,-0.705416,-0.277353,-0.251724,0.309726,0.00555468,-9.11193e-05,0.0155067,0.0490507,-0.0732056,0.0913815,-0.0655034
1413393228855760384,-2.98638,0.484028,2.55311,0.506298,-0.412252,-0.705352,-0.276026,-0.243102,0.320601,-0.00680077,0.000189597,0.0156162,0.0490849,-0.0722673,0.0919179,-0.0641712
1413393228905760512,-2.99848,0.500417,2.54614,0.502591,-0.415956,-0.706682,-0.27383,-0.243389,0.332994,-0.00512352,0.000299915,0.0156366,0.0491643,-0.0710361,0.0916106,-0.0633898
1413393228955760384,-3.01088,0.517371,2.54686,0.501114,-0.417946,-0.706814,-0.273168,-0.248232,0.34396,-0.0176266,0.00023099,0.0156096,0.0492047,-0.0702954,0.0913268,-0.0640949
1413393229005760512,-3.02334,0.535355,2.54331,-0.499317,0.41771,0.707335,0.275461,-0.24064,0.372085,-0.0106318,0.000195858,0.0155939,0.0492895,-0.0697406,0.0907202,-0.0642249
1413393229055760384,-3.03596,0.554492,2.54186,-0.497087,0.414354,0.70892,0.280442,-0.257375,0.390601,-0.0331704,0.000107819,0.0155478,0.0493589,-0.0686037,0.0896057,-0.0643772
1413393229105760512,-3.04896,0.574277,2.52824,-0.496633,0.410655,0.709349,0.285557,-0.261771,0.396911,-0.0568822,0.000105773,0.0155711,0.0494087,-0.0681993,0.0898208,-0.0647063
1413393229155760384,-3.06221,0.594022,2.52817,-0.495807,0.407531,0.709936,0.289973,-0.264902,0.397395,-0.0488209,0.000130255,0.015581,0.0494783,-0.0673986,0.0896764,-0.0646723
1413393229205760512,-3.07611,0.613764,2.52655,-0.495136,0.404177,0.710798,0.293679,-0.290058,0.396023,-0.0797857,8.04943e-05,0.0156067,0.0495703,-0.0669099,0.090037,-0.0653249
1413393229255760384,-3.09098,0.633551,2.52428,-0.494954,0.401184,0.711462,0.296469,-0.305197,0.392865,-0.0971992,8.96982e-05,0.0156134,0.0496353,-0.0660948,0.0903536,-0.0655343
1413393229305760512,-3.10647,0.653138,2.52094,-0.495531,0.398811,0.711398,0.298851,-0.31276,0.390208,-0.111316,0.000114348,0.0156642,0.0496885,-0.0654855,0.0908041,-0.0654284
1413393229355760384,-3.123,0.672382,2.51473,-0.496907,0.397015,0.710956,0.300008,-0.34728,0.384881,-0.126838,7.93085e-05,0.0156636,0.0497613,-0.0646577,0.0908424,-0.0655499
1413393229405760512,-3.14049,0.691271,2.51662,-0.499201,0.396394,0.709927,0.299457,-0.363542,0.37832,-0.143418,6.37033e-05,0.015595,0.0498464,-0.0629412,0.0908448,-0.0659389
1413393229455760384,-3.15897,0.709914,2.51023,0.503068,-0.397478,-0.707663,-0.296897,-0.369518,0.370571,-0.141831,6.28651e-05,0.015592,0.0499007,-0.0621966,0.0909035,-0.0659762
1413393229505760512,-3.17787,0.728212,2.50809,0.507095,-0.399177,-0.705589,-0.292672,-0.386366,0.360862,-0.144316,8.86214e-05,0.0156107,0.0499503,-0.0614369,0.0910605,-0.0657914
1413393229555760384,-3.19718,0.746198,2.50475,0.509136,-0.401675,-0.704438,-0.288452,-0.387231,0.358882,-0.130098,0.000114274,0.015608,0.0500174,-0.0608461,0.091111,-0.0658167
1413393229605760512,-3.21614,0.764043,2.50075,0.510846,-0.40444,-0.70374,-0.283223,-0.372275,0.362508,-0.118408,0.000132603,0.015605,0.0500862,-0.0599913,0.0911624,-0.0657345
1413393229655760384,-3.2349,0.781828,2.5052,0.510885,-0.407319,-0.704094,-0.278099,-0.376831,0.355168,-0.113265,0.000162075,0.0156053,0.0501362,-0.0587863,0.0912834,-0.0653394
1413393229705760512,-3.25316,0.799747,2.51276,0.509264,-0.408856,-0.705609,-0.274962,-0.360542,0.368439,-0.0976122,0.000172562,0.0155735,0.0502066,-0.0572071,0.0912923,-0.0650941
1413393229755760384,-3.27105,0.818086,2.52308,0.507538,-0.410136,-0.707181,-0.272193,-0.357377,0.373904,-0.0760899,0.000167381,0.0155049,0.0502644,-0.0555255,0.09131,-0.0649409
1413393229805760512,-3.28873,0.837126,2.52577,0.50457,-0.4118,-0.709425,-0.269345,-0.353707,0.392638,-0.0572991,0.000151355,0.0154808,0.0503185,-0.0541737,0.0913785,-0.0650262
1413393229855760384,-3.3053,0.857195,2.51729,0.50118,-0.412311,-0.712502,-0.266758,-0.348397,0.412637,-0.034006,0.000103101,0.0154993,0.0503833,-0.0534218,0.0917118,-0.0655028
1413393229905760512,-3.32252,0.878266,2.51556,-0.498331,0.413087,0.71478,0.264793,-0.348219,0.427877,-0.0150329,8.33506e-05,0.0154931,0.0504372,-0.0522919,0.0918219,-0.0652362
1413393229955760384,-3.34,0.90055,2.51504,-0.496586,0.412518,0.71639,0.264608,-0.355332,0.459257,-0.00100056,9.26356e-05,0.01551,0.050492,-0.051709,0.0922909,-0.0653985
1413393230005760512,-3.35763,0.924189,2.51465,-0.494852,0.410312,0.717963,0.26701,-0.352076,0.487318,0.0478451,0.000105706,0.0155386,0.0505635,-0.0509803,0.0926163,-0.0654645
1413393230055760384,-3.37569,0.949242,2.51026,-0.494768,0.405531,0.718707,0.272416,-0.373056,0.505801,0.0494952,0.000100694,0.0155001,0.0506139,-0.0496001,0.0924526,-0.0651039
1413393230105760512,-3.3944,0.974874,2.5177,-0.49486,0.401013,0.71927,0.277404,-0.377972,0.520219,0.0385313,7.14151e-05,0.0154978,0.0506756,-0.0491562,0.0928086,-0.0660253
1413393230155760384,-3.41374,1.00119,2.51606,-0.495435,0.397562,0.719343,0.28113,-0.39468,0.527819,0.0342194,9.90414e-05,0.0154917,0.0507358,-0.0484693,0.0932069,-0.0658351
1413393230205760512,-3.43393,1.02764,2.51734,-0.495483,0.394365,0.719931,0.284029,-0.417392,0.524652,0.0134196,0.000119437,0.015495,0.0507805,-0.0479974,0.0934744,-0.0656201
1413393230255760384,-3.45518,1.05402,2.5211,-0.497118,0.391984,0.71935,0.285935,-0.433832,0.529618,-0.00736385,8.82566e-05,0.0154667,0.050816,-0.0475529,0.0935258,-0.0661197
1413393230305760512,-3.47734,1.08019,2.53087,-0.499568,0.390358,0.71831,0.286501,-0.450895,0.525663,-0.0148447,7.63532e-05,0.0154473,0.0508779,-0.0471747,0.0937886,-0.0668643
1413393230355760384,-3.50012,1.10617,2.52993,0.501176,-0.391308,-0.717634,-0.284082,-0.459207,0.514522,-0.051209,5.33266e-05,0.0154529,0.0509297,-0.0467872,0.0939309,-0.0671248
1413393230405760512,-3.52343,1.132,2.52779,0.503681,-0.392236,-0.716241,-0.281879,-0.470412,0.514193,-0.0557577,2.2505e-05,0.015443,0.0509933,-0.0465143,0.0941923,-0.0674303
1413393230455760384,-3.54714,1.15784,2.52792,0.504828,-0.394402,-0.715043,-0.27984,-0.475395,0.522834,-0.0506913,3.86489e-06,0.0154312,0.0510619,-0.0463306,0.0943242,-0.0677585
1413393230505760512,-3.57081,1.18389,2.52332,0.505828,-0.398498,-0.712842,-0.277839,-0.475161,0.519965,-0.0281738,-3.49499e-05,0.0154261,0.0511542,-0.0461288,0.0944233,-0.0678822
1413393230555760384,-3.59395,1.21017,2.52827,0.505821,-0.404048,-0.710076,-0.276915,-0.462197,0.523091,-0.0469747,-5.82186e-05,0.0154304,0.0512219,-0.0453869,0.094501,-0.0668121
1413393230605760512,-3.61595,1.23617,2.56922,0.505376,-0.410471,-0.70669,-0.276944,-0.451625,0.53916,-0.0342351,-6.99262e-05,0.0154504,0.0512776,-0.0446153,0.0946887,-0.0651463
1413393230655760384,-3.63786,1.26322,2.60327,0.504041,-0.418383,-0.702699,-0.277693,-0.447897,0.548666,-0.0110542,-7.08613e-05,0.0154604,0.0513225,-0.0442424,0.0952549,-0.0640821
1413393230705760512,-3.6598,1.29168,2.60033,0.502098,-0.425693,-0.698635,-0.280342,-0.442779,0.582614,0.0405317,-9.79762e-05,0.015472,0.0514145,-0.0436608,0.0952282,-0.0624919
1413393230755760384,-3.68089,1.32082,2.58945,0.500076,-0.433646,-0.693947,-0.283397,-0.422646,0.595649,0.0520819,-0.000149259,0.0154445,0.0515077,-0.0433308,0.0951785,-0.0611408
1413393230805760512,-3.70145,1.35046,2.58563,-0.497639,0.441917,0.688822,0.287385,-0.415563,0.609269,0.0676308,-0.000171776,0.0154315,0.0515345,-0.0432558,0.0954523,-0.0609498
1413393230855760384,-3.72126,1.38117,2.58707,-0.49388,0.45015,0.683771,0.293097,-0.390655,0.634625,0.0802127,-0.000207019,0.0154221,0.0516012,-0.0432114,0.0958312,-0.0606683
1413393230905760512,-3.74035,1.413,2.59082,-0.489207,0.458035,0.678672,0.300476,-0.38186,0.647553,0.111231,-0.000221872,0.0154019,0.0516555,-0.0432847,0.0960419,-0.0604061
1413393230955760384,-3.75882,1.44552,2.59632,-0.483151,0.464264,0.674655,0.309621,-0.368181,0.657052,0.12679,-0.000246598,0.0154062,0.0517079,-0.0433832,0.096372,-0.0600658
1413393231005760512,-3.77693,1.47869,2.60047,-0.476465,0.469059,0.671397,0.319674,-0.35726,0.666145,0.140502,-0.000263064,0.0154029,0.0517335,-0.0436958,0.0966802,-0.0598988
1413393231055760384,-3.79471,1.5119,2.65286,-0.469665,0.472482,0.669079,0.329407,-0.365205,0.6806,0.130136,-0.000188346,0.0154819,0.0517992,-0.0435676,0.0973837,-0.0582463
1413393231105760512,-3.81327,1.54564,2.68172,-0.46444,0.474995,0.666661,0.337992,-0.386988,0.677147,0.128674,-0.000181936,0.015498,0.0518762,-0.043364,0.0975845,-0.0574364
1413393231155760384,-3.83269,1.57965,2.6994,-0.459975,0.477216,0.664569,0.345014,-0.399758,0.680592,0.141784,-0.000168252,0.0155108,0.0519155,-0.0434648,0.0980239,-0.0564881
1413393231205760512,-3.85338,1.61373,2.70513,-0.456668,0.480427,0.662361,0.349174,-0.418309,0.687075,0.140298,-0.000191574,0.0155206,0.0519392,-0.0438948,0.0982818,-0.0563065
1413393231255760384,-3.87519,1.64788,2.71483,-0.453687,0.482463,0.660736,0.353308,-0.45407,0.680467,0.132897,-0.000243703,0.0155168,0.0519414,-0.0446691,0.0983744,-0.0562235
1413393231305760512,-3.89815,1.68148,2.73087,-0.453233,0.485256,0.658204,0.354788,-0.465884,0.672186,0.0855721,-0.000305563,0.0155183,0.0519431,-0.0452656,0.0980983,-0.0558574
1413393231355760384,-3.9218,1.71488,2.72333,-0.454082,0.488346,0.655506,0.354458,-0.482309,0.670035,0.0347895,-0.000323097,0.0155225,0.0519463,-0.0453522,0.0985326,-0.0553141
1413393231405760512,-3.94611,1.74817,2.72331,-0.456569,0.491391,0.652257,0.353045,-0.503908,0.671899,-0.00375065,-0.000345837,0.0155232,0.0519529,-0.0455121,0.0989358,-0.0550051
1413393231455760384,-3.97121,1.78182,2.71674,-0.461251,0.494136,0.647445,0.351983,-0.500723,0.674822,-0.0368005,-0.000339826,0.0155279,0.0519473,-0.0458217,0.0992783,-0.0542953
1413393231505760512,-3.99644,1.81539,2.70956,-0.468057,0.495749,0.641463,0.351684,-0.506103,0.661836,-0.0812927,-0.000329929,0.0155313,0.0519426,-0.0464767,0.0995725,-0.0536931
1413393231555760384,-4.02142,1.84835,2.72046,-0.476549,0.495296,0.634933,0.352767,-0.504801,0.651642,-0.129651,-0.000289235,0.0155766,0.0519882,-0.0465451,0.100293,-0.0522227
1413393231605760512,-4.04559,1.88035,2.75647,-0.48434,0.494778,0.628678,0.354083,-0.471949,0.634882,-0.160148,-0.0001483,0.0156688,0.052078,-0.0465349,0.10135,-0.0501556
1413393231655760384,-4.06869,1.91142,2.76965,-0.489358,0.495127,0.623792,0.355334,-0.458517,0.607738,-0.17587,-5.33071e-06,0.0158117,0.0521701,-0.0473268,0.102193,-0.0481755
1413393231705760512,-4.09036,1.94126,2.78659,-0.490651,0.496017,0.621178,0.356884,-0.423822,0.586011,-0.175848,0.00017108,0.0160451,0.0522456,-0.0485566,0.102781,-0.0455343
1413393231755760384,-4.1105,1.96998,2.78745,-0.489007,0.499253,0.619341,0.35782,-0.384678,0.565977,-0.162846,0.000268042,0.016142,0.0523132,-0.0493005,0.102645,-0.0435389
1413393231805760512,-4.12964,1.99753,2.77917,-0.48628,0.503796,0.617955,0.357566,-0.371284,0.53077,-0.154822,0.00027567,0.0162171,0.0523886,-0.0508314,0.10109,-0.0422099
1413393231855760384,-4.14748,2.02362,2.77429,-0.4838,0.51022,0.615824,0.35549,-0.330998,0.508959,-0.142067,0.000232395,0.0163068,0.0524573,-0.0526391,0.0992258,-0.0415373
1413393231905760512,-4.16385,2.04845,2.80162,-0.479078,0.518657,0.613797,0.353175,-0.290238,0.497584,-0.115538,0.000194613,0.0165698,0.0525331,-0.0566505,0.0970579,-0.0428111
1413393231955760384,-4.1782,2.07304,2.79965,-0.475252,0.526912,0.610642,0.351591,-0.26427,0.496404,-0.0982042,0.000170256,0.0168656,0.0525926,-0.0605263,0.0959362,-0.0437659
1413393232005760512,-4.19046,2.09765,2.78081,-0.471179,0.535031,0.60684,0.351394,-0.212422,0.486336,-0.0871755,7.69558e-05,0.0168809,0.0527904,-0.0620453,0.093178,-0.0428436
1413393232055760384,-4.19969,2.12245,2.77499,-0.465283,0.541936,0.603822,0.353859,-0.169596,0.500279,-0.0464963,2.41313e-05,0.0169471,0.0529325,-0.0619315,0.0927141,-0.0401512
1413393232105760512,-4.20717,2.14754,2.75563,-0.459416,0.548318,0.600253,0.357744,-0.132142,0.490612,-0.0202995,-4.81706e-05,0.0169248,0.0531365,-0.0612679,0.0911069,-0.0372051
1413393232155760384,-4.21272,2.17224,2.74577,-0.453445,0.554616,0.596092,0.362577,-0.0887199,0.489312,-0.0224065,-9.17825e-05,0.0169785,0.0531506,-0.0619767,0.0912371,-0.036232
1413393232205760512,-4.21642,2.19692,2.74576,-0.447379,0.559084,0.591544,0.370612,-0.0600108,0.497022,-0.0145996,-9.63841e-05,0.0169788,0.0531519,-0.0630785,0.0915338,-0.0357
1413393232255760384,-4.21884,2.22179,2.74322,-0.441788,0.564402,0.58627,0.377574,-0.0375126,0.496579,-0.0479025,-9.71799e-05,0.0169789,0.0531523,-0.0642256,0.0917841,-0.0352225
1413393232305760512,-4.21989,2.24669,2.74,-0.436476,0.569882,0.58056,0.384284,-0.00604693,0.497868,-0.080439,-9.8976e-05,0.016979,0.053153,-0.0653724,0.0920583,-0.0347045
1413393232355760384,-4.21977,2.27177,2.73552,-0.431947,0.576906,0.573686,0.389211,0.00988798,0.501637,-0.116201,-9.96136e-05,0.016979,0.0531533,-0.0665254,0.0923233,-0.0341828
1413393232405760512,-4.21853,2.29692,2.72918,-0.426237,0.584006,0.568113,0.393074,0.0356073,0.505625,-0.132674,-0.000100135,0.0169791,0.0531535,-0.0676763,0.0925862,-0.0336539
1413393232455760384,-4.21632,2.32228,2.72036,-0.420701,0.59082,0.562159,0.39739,0.0587047,0.505568,-0.173554,-0.000160109,0.0169935,0.0532092,-0.0677865,0.0913412,-0.0324189
1413393232505760512,-4.21313,2.34808,2.6962,-0.415707,0.597723,0.556187,0.400714,0.0731534,0.514653,-0.20959,-0.000230503,0.017,0.0532985,-0.0675684,0.0899596,-0.0306892
1413393232555760384,-4.20911,2.37401,2.68857,-0.411726,0.603348,0.550816,0.403801,0.0888328,0.523465,-0.24729,-0.000273718,0.0170226,0.0533511,-0.0676796,0.0893863,-0.0297996
1413393232605760512,-4.20454,2.4002,2.67524,-0.408345,0.607448,0.546735,0.406623,0.100265,0.521829,-0.279555,-0.000318578,0.0170234,0.053418,-0.0679495,0.0886599,-0.0291087
1413393232655760384,-4.19904,2.42635,2.66126,-0.406132,0.611362,0.542383,0.408797,0.130075,0.526886,-0.259569,-0.000364355,0.017023,0.0534799,-0.0679648,0.087846,-0.0284827
1413393232705760512,-4.19239,2.45275,2.65171,-0.404398,0.613995,0.538915,0.411149,0.136704,0.53263,-0.251865,-0.000389735,0.0170269,0.0535505,-0.068175,0.087287,-0.02739
1413393232755760384,-4.18471,2.47926,2.64104,-0.401835,0.615452,0.537216,0.4137,0.160728,0.532091,-0.228624,-0.000397872,0.0170649,0.0535811,-0.0689177,0.0875462,-0.0266619
1413393232805760512,-4.17586,2.50602,2.63002,-0.399572,0.617015,0.535837,0.415348,0.190033,0.54719,-0.223706,-0.000423395,0.0171102,0.0536142,-0.0694841,0.0878277,-0.0257747
1413393232855760384,-4.16608,2.53375,2.61888,-0.398613,0.617801,0.534365,0.416993,0.195869,0.559228,-0.213921,-0.000451579,0.0171733,0.0536563,-0.0699091,0.08813,-0.024752
1413393232905760512,-4.15542,2.56151,2.60509,-0.396294,0.618615,0.534718,0.417545,0.22011,0.558849,-0.201956,-0.00048864,0.0172457,0.0536977,-0.0701754,0.0884105,-0.0235339
1413393232955760384,-4.14371,2.5897,2.59064,-0.392657,0.617588,0.536342,0.420407,0.240971,0.562433,-0.155918,-0.000485482,0.0172925,0.0537769,-0.0699319,0.0880606,-0.0217515
1413393233005760512,-4.13142,2.61853,2.57458,-0.389375,0.616837,0.53829,0.422071,0.245563,0.577714,-0.122757,-0.000426625,0.017251,0.0539148,-0.0687805,0.0859805,-0.0187168
1413393233055760384,-4.11881,2.64794,2.56215,-0.386128,0.615485,0.540737,0.423895,0.252453,0.588835,-0.0826766,-0.000384626,0.0171095,0.0540316,-0.0665167,0.0829742,-0.0155781
1413393233105760512,-4.10576,2.67754,2.55662,-0.38316,0.61507,0.542858,0.424479,0.268169,0.587426,-0.0487815,-0.000378179,0.0170143,0.0540001,-0.0651675,0.0819331,-0.0141279
1413393233155760384,-4.09235,2.70749,2.55127,-0.381974,0.614228,0.543993,0.425313,0.263222,0.602042,-0.00576012,-0.000382458,0.0170329,0.0540374,-0.0645045,0.0828279,-0.0137319
1413393233205760512,-4.07885,2.73807,2.55307,-0.381016,0.612784,0.544835,0.427174,0.26365,0.621258,0.0468495,-0.000358445,0.017104,0.0541124,-0.0646475,0.0839176,-0.0132536
1413393233255760384,-4.06497,2.76916,2.55782,-0.380913,0.611319,0.543088,0.431566,0.280229,0.619273,0.0881396,-0.00035585,0.0171651,0.0541735,-0.0646783,0.0852779,-0.013282
1413393233305760512,-4.05098,2.80046,2.5637,-0.380752,0.610278,0.540635,0.436236,0.26962,0.631896,0.133863,-0.000323553,0.017217,0.0542404,-0.0645566,0.0862942,-0.0127954
1413393233355760384,-4.03725,2.832,2.57255,-0.381088,0.609315,0.536674,0.442141,0.273395,0.632883,0.188935,-0.000320173,0.0172133,0.0542701,-0.0639669,0.0861697,-0.0120443
1413393233405760512,-4.02375,2.86328,2.5839,-0.381671,0.609708,0.530851,0.448087,0.272144,0.617584,0.199666,-0.000301317,0.0172546,0.0543583,-0.0640722,0.0847979,-0.0111977
1413393233455760384,-4.01073,2.89417,2.5943,-0.382995,0.612322,0.523092,0.452496,0.26147,0.612992,0.248987,-0.000285791,0.0172234,0.0544055,-0.0632767,0.0830018,-0.0105424
1413393233505760512,-3.99788,2.92426,2.61372,-0.380211,0.614778,0.517571,0.457829,0.257304,0.58324,0.292957,-0.000295469,0.0172046,0.0544211,-0.0627753,0.0817415,-0.0104633
1413393233555760384,-3.98518,2.95309,2.62847,-0.377528,0.619578,0.510949,0.461007,0.257173,0.561769,0.299136,-0.00028346,0.017206,0.0544998,-0.0621167,0.080909,-0.0101505
1413393233605760512,-3.97254,2.98131,2.64586,-0.370803,0.62468,0.506169,0.464837,0.250233,0.562797,0.346421,-0.000273768,0.017179,0.0545413,-0.0613075,0.0799827,-0.00991752
1413393233655760384,-3.96042,3.00864,2.65696,-0.36303,0.631505,0.501276,0.467047,0.243693,0.550397,0.379724,-0.000256937,0.0171906,0.0546232,-0.0601627,0.0786066,-0.00900339
1413393233705760512,-3.94825,3.03479,2.69867,-0.354817,0.639333,0.495845,0.468504,0.232772,0.5366,0.412493,-0.000252884,0.0172196,0.0546507,-0.0600484,0.0809911,-0.00993572
1413393233755760384,-3.93666,3.06142,2.72958,-0.347204,0.643958,0.489766,0.474233,0.221787,0.534227,0.472189,-0.000259405,0.0172411,0.0547254,-0.0595973,0.0819883,-0.00955575
1413393233805760512,-3.92578,3.08721,2.75472,-0.34339,0.648322,0.481975,0.479022,0.204043,0.509743,0.491822,-0.000272601,0.0172809,0.0547648,-0.0591181,0.0841911,-0.00970454
1413393233855760384,-3.91549,3.11232,2.77945,-0.340607,0.650186,0.474769,0.485634,0.17873,0.508438,0.478379,-0.000283598,0.0172954,0.0547886,-0.0589006,0.0882025,-0.0106784
1413393233905760512,-3.90638,3.13701,2.80237,-0.341045,0.652775,0.46665,0.489706,0.16706,0.493404,0.474817,-0.000316347,0.0172991,0.0548164,-0.0588072,0.0908718,-0.0111512
1413393233955760384,-3.89778,3.16079,2.82661,-0.339498,0.655253,0.458781,0.494879,0.168558,0.466349,0.466425,-0.000365839,0.0173151,0.0548347,-0.0587531,0.0927934,-0.0120542
1413393234005760512,-3.88966,3.18355,2.83549,-0.338352,0.660512,0.450751,0.49605,0.145306,0.451657,0.470264,-0.00039325,0.0173412,0.0548455,-0.0586839,0.0956382,-0.0130183
1413393234055760384,-3.88199,3.20555,2.81337,-0.336858,0.666683,0.442589,0.496162,0.139367,0.426027,0.457182,-0.000416788,0.017362,0.0548834,-0.0585764,0.0990599,-0.0138
1413393234105760512,-3.87438,3.22672,2.75238,-0.333355,0.673503,0.435292,0.49577,0.14322,0.397968,0.439913,-0.000450583,0.0173851,0.054931,-0.0583054,0.103123,-0.0142977
1413393234155760384,-3.86727,3.24676,2.72736,-0.329201,0.680108,0.428848,0.495146,0.136046,0.382916,0.391307,-0.000481264,0.0174087,0.0549467,-0.0576856,0.104678,-0.0145513
1413393234205760512,-3.86018,3.26582,2.73271,-0.327732,0.685168,0.421772,0.495222,0.140756,0.36711,0.355996,-0.000512374,0.0174204,0.0549893,-0.057022,0.105571,-0.014946
1413393234255760384,-3.85283,3.28342,2.761,-0.330922,0.68785,0.41105,0.498389,0.153293,0.347869,0.309829,-0.000549816,0.0174231,0.0550307,-0.0561826,0.106852,-0.0147371
1413393234305760512,-3.86364,3.26916,3.3513,-0.347174,0.68354,0.409848,0.494235,0.144841,0.326801,0.271103,-0.00165851,0.0173743,0.0551918,-0.0472751,0.148776,0.00849144
1413393234355760384,-3.85602,3.28465,3.37914,-0.354846,0.6855,0.395963,0.497382,0.16311,0.285487,0.245494,-0.00166756,0.0173863,0.0552249,-0.0459135,0.149853,0.0106018
1413393234405760512,-3.84614,3.29794,3.45954,-0.361239,0.68718,0.382279,0.501151,0.193048,0.231056,0.194377,-0.0016761,0.0174046,0.0552907,-0.0453736,0.156115,0.0114138
1413393234455760384,-3.83652,3.30807,3.47189,-0.36539,0.689558,0.369819,0.504216,0.208625,0.174867,0.164502,-0.00166241,0.0174104,0.0553322,-0.044054,0.153127,0.0124832
1413393234505760512,-3.82543,3.31497,3.48396,-0.365315,0.691627,0.360549,0.508136,0.238852,0.0956052,0.130808,-0.00166196,0.017412,0.0553837,-0.0430253,0.152089,0.0135181
1413393234555760384,-3.81251,3.31789,3.49259,-0.361091,0.69373,0.353427,0.513265,0.277509,0.00410114,0.179409,-0.00167238,0.0174717,0.0554473,-0.0416021,0.150102,0.0157068
1413393234605760512,-3.79778,3.31589,3.49761,-0.349251,0.694337,0.351286,0.522033,0.30962,-0.0618441,0.185136,-0.00168819,0.0174636,0.0554148,-0.0415891,0.152713,0.0135137
1413393234655760384,-3.78115,3.31097,3.50859,-0.329705,0.694669,0.353882,0.532446,0.324401,-0.145854,0.259244,-0.00168216,0.0174664,0.0555019,-0.0401679,0.153032,0.0148528
1413393234705760512,-3.76528,3.30126,3.52487,-0.306901,0.695972,0.358308,0.541341,0.309487,-0.232708,0.410211,-0.00169195,0.0174908,0.0555596,-0.039075,0.153439,0.0155276
1413393234755760384,-3.75049,3.28828,3.54531,-0.286571,0.699644,0.360708,0.546136,0.280532,-0.279216,0.435969,-0.00170051,0.017516,0.0555931,-0.0375958,0.152745,0.018393
1413393234805760512,-3.73699,3.27373,3.56729,-0.266208,0.705101,0.362883,0.54798,0.249091,-0.298121,0.434847,-0.00170097,0.0175262,0.0556237,-0.0366344,0.153092,0.0194536
1413393234855760384,-3.7253,3.25869,3.58707,-0.251093,0.712958,0.361211,0.546049,0.223504,-0.306318,0.365548,-0.00172008,0.0175656,0.0556684,-0.0352242,0.150326,0.0229802
1413393234905760512,-3.71509,3.24403,3.61671,-0.242655,0.721151,0.354801,0.543301,0.200757,-0.303554,0.279617,-0.00170574,0.0176159,0.0557182,-0.0334025,0.145043,0.0273518
1413393234955760384,-3.70613,3.22977,3.65015,-0.236946,0.728726,0.346393,0.541136,0.175536,-0.296259,0.17694,-0.00169974,0.0176618,0.0557558,-0.0318087,0.13921,0.0320877
1413393235005760512,-3.69798,3.21537,3.66286,-0.235042,0.736738,0.334825,0.538391,0.158894,-0.290869,0.0763953,-0.00170151,0.0176786,0.0557807,-0.0309189,0.136273,0.0341345
1413393235055760384,-3.69072,3.20136,3.67159,-0.234327,0.743818,0.321976,0.536803,0.155144,-0.285753,-0.0233423,-0.00169776,0.0177505,0.0558136,-0.0302047,0.129684,0.0385736
1413393235105760512,-3.68345,3.18708,3.66623,-0.232669,0.750121,0.309068,0.53634,0.156157,-0.287537,-0.115155,-0.00169022,0.01779,0.0558568,-0.0295666,0.125418,0.0407157
1413393235155760384,-3.67588,3.17268,3.66023,-0.228796,0.756117,0.297553,0.536099,0.165558,-0.287174,-0.189306,-0.00168868,0.0178137,0.0558966,-0.0290845,0.123149,0.0424833
1413393235205760512,-3.66762,3.15833,3.65135,-0.22078,0.760033,0.288843,0.53868,0.17002,-0.290079,-0.207938,-0.00167295,0.0178398,0.0559522,-0.0289678,0.121395,0.0435191
1413393235255760384,-3.659,3.14368,3.6411,-0.208802,0.764101,0.283264,0.540659,0.172761,-0.292344,-0.224828,-0.00165683,0.0178826,0.0559935,-0.0285999,0.120489,0.044914
1413393235305760512,-3.65049,3.12928,3.63093,-0.194948,0.767427,0.279484,0.543084,0.17242,-0.283378,-0.202323,-0.00163916,0.0178889,0.0560595,-0.0291261,0.12006,0.0446704
1413393235355760384,-3.64207,3.11559,3.62167,-0.182954,0.771211,0.276394,0.543477,0.166415,-0.263089,-0.193242,-0.00162245,0.0179184,0.0561001,-0.0290983,0.119692,0.0451558
1413393235405760512,-3.63402,3.10312,3.6113,-0.172004,0.774997,0.274589,0.542583,0.159289,-0.233727,-0.171622,-0.00161174,0.0179485,0.0561602,-0.0294516,0.119488,0.044242
1413393235455760384,-3.62605,3.09234,3.60621,-0.163607,0.778177,0.272233,0.541814,0.165536,-0.197707,-0.152507,-0.00160348,0.0179636,0.0561932,-0.0297963,0.118915,0.0432801
1413393235505760512,-3.61798,3.08358,3.60214,-0.155511,0.7812,0.271477,0.540226,0.169346,-0.158677,-0.120038,-0.00157436,0.0179881,0.056252,-0.0298466,0.118029,0.0428718
1413393235555760384,-3.60979,3.07714,3.5951,-0.1462,0.780346,0.271502,0.544034,0.172574,-0.107956,-0.0785083,-0.00157348,0.0179779,0.0562926,-0.030453,0.117466,0.0411424
1413393235605760512,-3.60181,3.07303,3.58048,-0.135127,0.77762,0.273482,0.549778,0.159463,-0.0600481,-0.0982265,-0.0015648,0.0179859,0.0563349,-0.0311767,0.116911,0.0398288
1413393235655760384,-3.59433,3.0716,3.56963,-0.127171,0.77553,0.272753,0.554965,0.147711,-0.00218037,-0.0793085,-0.00156283,0.0179965,0.0563547,-0.0316398,0.116378,0.0387064
1413393235705760512,-3.58777,3.07337,3.56318,-0.122586,0.773044,0.271089,0.560255,0.119665,0.0648851,-0.0829848,-0.00155743,0.017999,0.0563905,-0.0322691,0.116024,0.0377696
1413393235755760384,-3.58245,3.07806,3.5607,-0.122152,0.772491,0.267282,0.562936,0.092787,0.127281,-0.0739955,-0.00157136,0.018012,0.056426,-0.0329722,0.116309,0.0370229
1413393235805760512,-3.57861,3.08577,3.56353,-0.125335,0.77259,0.262126,0.564522,0.0603209,0.18652,-0.0672497,-0.00155678,0.018015,0.0564547,-0.0336988,0.116003,0.0361648
1413393235855760384,-3.57573,3.09558,3.55878,-0.134908,0.773501,0.253431,0.565039,0.0408999,0.227003,-0.0711282,-0.00153656,0.0180163,0.0564885,-0.0343018,0.115727,0.0362553
1413393235905760512,-3.57365,3.10657,3.54451,-0.145915,0.7751,0.242493,0.564912,0.0196915,0.249222,-0.0738143,-0.00153356,0.0180302,0.0565246,-0.0349457,0.114552,0.0369879
1413393235955760384,-3.57211,3.11806,3.50029,-0.155906,0.777075,0.231211,0.564261,0.00880565,0.264907,-0.0605384,-0.00150782,0.0180229,0.0565324,-0.0356019,0.111982,0.0396679
1413393236005760512,-3.5714,3.12961,3.47151,-0.161703,0.777933,0.221309,0.565416,0.000886651,0.252705,-0.0330558,-0.00149409,0.0180449,0.0565477,-0.0364159,0.109235,0.0420608
1413393236055760384,-3.57234,3.14213,3.51529,-0.164727,0.78014,0.208172,0.56649,0.00671954,0.24112,-0.0280253,-0.00130502,0.0180613,0.056529,-0.0373592,0.104812,0.0428046
1413393236105760512,-3.57047,3.15093,3.55804,-0.164665,0.782503,0.196653,0.567365,0.02743,0.231655,0.0154992,-0.00116768,0.0180817,0.0564992,-0.0386225,0.101872,0.0428141
1413393236155760384,-3.56878,3.15421,3.58856,-0.161959,0.785055,0.18533,0.568429,0.00887962,0.173864,0.0254736,-0.00102456,0.0180955,0.0565036,-0.0394986,0.0987323,0.0431657
1413393236205760512,-3.56944,3.16725,3.60418,-0.152755,0.788545,0.176199,0.569049,-0.000735694,0.138821,0.058644,-0.000868361,0.0181151,0.0564934,-0.0408587,0.0973459,0.0430817
1413393236255760384,-3.56422,3.16207,3.49172,-0.149016,0.789523,0.181253,0.567094,-0.0329882,0.114838,0.0956751,-0.00159175,0.0181196,0.0567236,-0.0401731,0.105114,0.048189
1413393236305760512,-3.5693,3.17312,3.56291,-0.131031,0.793279,0.171461,0.569333,-0.0147219,0.0882289,0.080235,-0.00117116,0.0181394,0.0566492,-0.0414998,0.100504,0.0478862
1413393236355760384,-3.56898,3.17736,3.54506,-0.1206,0.795226,0.166612,0.570361,-0.0145842,0.0896783,0.114234,-0.00129969,0.01815,0.0567308,-0.0424992,0.102841,0.0490972
1413393236405760512,-3.5699,3.18201,3.5556,-0.112043,0.798189,0.158222,0.570357,-0.0154537,0.104725,0.112661,-0.00126618,0.0181677,0.0567771,-0.0438381,0.103547,0.0496639
1413393236455760384,-3.57082,3.18703,3.56243,-0.105089,0.800553,0.148766,0.570912,-0.0186022,0.0987249,0.0995822,-0.00125184,0.0181836,0.0568185,-0.0447575,0.103391,0.0503154
1413393236505760512,-3.57152,3.19219,3.57154,-0.099221,0.804732,0.138425,0.568683,-0.0110093,0.0979325,0.0992674,-0.00122856,0.0181992,0.0568485,-0.045829,0.104226,0.0511014
1413393236555760384,-3.57188,3.19755,3.57598,-0.0928146,0.809537,0.128673,0.565225,-0.000216405,0.106945,0.105431,-0.0012415,0.0182275,0.0568963,-0.0472462,0.10466,0.0514682
1413393236605760512,-3.57166,3.20313,3.58074,-0.0865091,0.815714,0.119008,0.559432,0.0139736,0.116342,0.10615,-0.00125638,0.0182334,0.0569328,-0.0484741,0.104934,0.0521184
1413393236655760384,-3.57051,3.2091,3.5845,-0.0812778,0.821023,0.109255,0.554418,0.0401856,0.125351,0.0545065,-0.00125296,0.0182523,0.056956,-0.0495736,0.104976,0.0530304
1413393236705760512,-3.56829,3.2156,3.5861,-0.0781472,0.824075,0.100271,0.552031,0.049388,0.133108,-0.000844832,-0.00127191,0.0182569,0.0569904,-0.050746,0.10555,0.0539586
1413393236755760384,-3.56536,3.22258,3.59574,-0.0774099,0.825714,0.0897939,0.551491,0.0785486,0.132973,-0.0477441,-0.00125172,0.0182836,0.057017,-0.0512793,0.105377,0.0556972
1413393236805760512,-3.56233,3.23215,3.75037,-0.0701427,0.82668,0.0664631,0.554313,0.108727,0.12989,-0.0920225,-0.00039494,0.0182966,0.0568286,-0.0542579,0.0958782,0.0511528
1413393236855760384,-3.55049,3.22401,3.58261,-0.0790957,0.824796,0.0717166,0.555259,0.13926,0.126199,-0.0824638,-0.00135625,0.0182976,0.0571219,-0.0535733,0.105031,0.0570763
1413393236905760512,-3.54381,3.22694,3.52174,-0.0811673,0.823311,0.0707705,0.557282,0.1654,0.111342,-0.0114103,-0.0017265,0.0182862,0.057228,-0.0524148,0.112247,0.064619
1413393236955760384,-3.53475,3.23153,3.51657,-0.078193,0.820469,0.0679771,0.562223,0.198313,0.08893,0.0325561,-0.00175543,0.0183153,0.0572665,-0.0533241,0.11422,0.0660985
1413393237005760512,-3.52407,3.23564,3.52522,-0.0737044,0.81754,0.0675862,0.567124,0.212711,0.0798349,0.12537,-0.00176373,0.0183571,0.0573183,-0.0541043,0.115296,0.0681962
1413393237055760384,-3.51368,3.23836,3.57983,-0.0690663,0.815404,0.0684576,0.570667,0.209932,0.0556494,0.196109,-0.001764,0.0183615,0.0573639,-0.054413,0.116797,0.0706087
1413393237105760512,-3.49439,3.2305,3.7709,-0.0666421,0.813077,0.0772317,0.57315,0.213536,0.054374,0.269968,-0.00221129,0.0183217,0.0573903,-0.0506632,0.135074,0.0847153
1413393237155760384,-3.4831,3.23237,3.78524,-0.0592744,0.809823,0.0824001,0.577827,0.216947,0.0651683,0.252798,-0.00224637,0.0183085,0.0574308,-0.0507033,0.136412,0.0864379
1413393237205760512,-3.47236,3.23559,3.78839,-0.0520156,0.807338,0.0879089,0.581182,0.211035,0.0792531,0.206668,-0.00223625,0.0183144,0.0574527,-0.0514547,0.135972,0.0884757
1413393237255760384,-3.46169,3.23971,3.788,-0.0469966,0.805536,0.0917703,0.583508,0.219277,0.0883268,0.134471,-0.00223707,0.0183392,0.0575062,-0.0522571,0.135197,0.0902621
1413393237305760512,-3.45109,3.24478,3.78878,-0.0428691,0.805332,0.0952865,0.583543,0.204948,0.115429,0.0755611,-0.00222865,0.0183554,0.0575526,-0.0528222,0.135061,0.0917561
1413393237355760384,-3.44127,3.25124,3.79043,-0.0403819,0.805255,0.0984782,0.583297,0.188958,0.144906,0.000379726,-0.0022069,0.0183592,0.0575856,-0.0533549,0.134897,0.0932447
1413393237405760512,-3.43215,3.25897,3.78918,-0.0397326,0.804357,0.100017,0.584318,0.178773,0.162682,-0.0716455,-0.00220821,0.0183856,0.0576401,-0.0541965,0.134771,0.0941329
1413393237455760384,-3.42362,3.2681,3.77718,-0.0426482,0.803951,0.0997217,0.584722,0.162584,0.201741,-0.102924,-0.00220315,0.0183825,0.0577133,-0.055014,0.135282,0.0945794
1413393237505760512,-3.41568,3.2789,3.7691,-0.0494491,0.803762,0.0972112,0.584869,0.153996,0.226796,-0.119044,-0.00220157,0.0183956,0.0577414,-0.055599,0.135298,0.0956621
1413393237555760384,-3.40855,3.29042,3.75618,-0.0583198,0.804511,0.0931515,0.583681,0.136092,0.23888,-0.108782,-0.00219227,0.0184181,0.0577679,-0.0559342,0.135379,0.0960768
1413393237605760512,-3.40184,3.30258,3.75023,-0.0675334,0.804694,0.0887524,0.583121,0.125216,0.242265,-0.104112,-0.00217619,0.018414,0.0577971,-0.0560286,0.135367,0.0972023
1413393237655760384,-3.39579,3.3146,3.74541,-0.0763865,0.806473,0.0844246,0.580206,0.117199,0.234495,-0.089101,-0.00216442,0.0184228,0.0578088,-0.0562243,0.135105,0.09815
1413393237705760512,-3.38987,3.32617,3.74333,-0.0836103,0.807331,0.0812473,0.578468,0.115167,0.220835,-0.0949151,-0.00216667,0.018435,0.0578411,-0.0563142,0.134895,0.0992533
1413393237755760384,-3.38415,3.33684,3.73721,-0.0884794,0.808433,0.0797782,0.576406,0.112669,0.199373,-0.0796052,-0.00216938,0.0184288,0.0578738,-0.0565534,0.134647,0.100496
1413393237805760512,-3.37827,3.34623,3.73116,-0.0914321,0.80937,0.0794305,0.574675,0.127916,0.177227,-0.0517935,-0.00217805,0.0184529,0.0579161,-0.057066,0.134455,0.101344
1413393237855760384,-3.37169,3.35447,3.7285,-0.0912335,0.810776,0.0810412,0.572496,0.143548,0.156644,-0.0572232,-0.00217743,0.0184586,0.0579265,-0.0573462,0.134607,0.10289
1413393237905760512,-3.3642,3.36169,3.727,-0.0890395,0.812516,0.0839059,0.569955,0.149732,0.131799,-0.0316783,-0.00216868,0.0184683,0.0579743,-0.057327,0.134795,0.104089
1413393237955760384,-3.35647,3.36787,3.72668,-0.0866502,0.81354,0.086148,0.568527,0.15348,0.105596,-0.0420138,-0.00216261,0.0184471,0.0579794,-0.0566429,0.135024,0.105106
1413393238005760512,-3.34848,3.37294,3.72866,-0.0789777,0.816053,0.0918733,0.565137,0.160633,0.0923472,-0.0445645,-0.00214603,0.0184624,0.0580275,-0.0566134,0.135556,0.106057
1413393238055760384,-3.33974,3.3777,3.73115,-0.0718388,0.817807,0.0972966,0.56264,0.178695,0.0984198,-0.0258424,-0.00215248,0.0184206,0.0580458,-0.0559653,0.135855,0.106655
1413393238105760512,-3.33057,3.38223,3.72577,-0.0664226,0.819737,0.100969,0.559844,0.193934,0.0983832,-0.021009,-0.0021476,0.0184454,0.0580827,-0.0562705,0.136053,0.107796
1413393238155760384,-3.32074,3.38679,3.71967,-0.0612688,0.820022,0.103298,0.559588,0.203315,0.0989389,0.00761988,-0.00215134,0.0184131,0.0581137,-0.0556618,0.136288,0.108398
1413393238205760512,-3.31022,3.39134,3.70767,-0.0573297,0.820515,0.104946,0.558977,0.222299,0.12905,0.0188844,-0.00216226,0.0183886,0.0581243,-0.0554708,0.136789,0.109035
1413393238255760384,-3.2989,3.36453,3.84624,-0.0649735,0.8192,0.118854,0.557282,0.212157,0.154629,0.0714367,-0.00308795,0.0182491,0.0583471,-0.0513599,0.168423,0.119115
1413393238305760512,-3.28751,3.37119,3.83288,-0.062941,0.819659,0.118964,0.556817,0.246624,0.178877,0.13094,-0.00315164,0.0182726,0.0584048,-0.0499116,0.170765,0.121074
1413393238355760384,-3.27732,3.38327,3.78157,-0.0627733,0.820167,0.11865,0.556154,0.27656,0.225404,0.159914,-0.00323083,0.0182567,0.0584329,-0.04809,0.172356,0.12285
1413393238405760512,-3.26459,3.39646,3.72393,-0.0634206,0.819879,0.117702,0.556706,0.317807,0.259266,0.225231,-0.00332615,0.0182431,0.0584434,-0.0456976,0.174293,0.124644
1413393238455760384,-3.25083,3.41103,3.66656,-0.067003,0.819103,0.114387,0.558119,0.330509,0.285298,0.254878,-0.00338061,0.018258,0.0585094,-0.0434691,0.175858,0.126242
1413393238505760512,-3.23277,3.42546,3.68921,-0.0744067,0.81885,0.109347,0.558562,0.336924,0.303044,0.227308,-0.00349879,0.0182188,0.0585203,-0.0407242,0.179231,0.129406
1413393238555760384,-3.21901,3.44171,3.63344,-0.0822398,0.817562,0.101189,0.560883,0.335143,0.307719,0.175724,-0.00348324,0.018209,0.0585536,-0.0400666,0.178807,0.127945
1413393238605760512,-3.20154,3.45695,3.63654,-0.0914509,0.816352,0.0934822,0.562554,0.352501,0.300131,0.118496,-0.00350228,0.0182006,0.058583,-0.0389508,0.179804,0.127851
1413393238655760384,-3.18366,3.47146,3.634,-0.0996794,0.815856,0.086241,0.563033,0.366836,0.281464,0.0740398,-0.00352313,0.0182212,0.0586309,-0.0380691,0.181217,0.127645
1413393238705760512,-3.16463,3.4852,3.63358,-0.105996,0.815379,0.0808049,0.563377,0.375343,0.25895,0.00801716,-0.00354126,0.0182168,0.0586483,-0.0374622,0.182212,0.127131
1413393238755760384,-3.14553,3.49722,3.63367,-0.110719,0.81495,0.0765307,0.563685,0.388552,0.224631,-0.0307747,-0.00355591,0.0182054,0.0586907,-0.0369756,0.183193,0.126456
1413393238805760512,-3.12577,3.5074,3.62784,-0.112078,0.814258,0.0747591,0.564654,0.403182,0.192916,-0.0428581,-0.00356038,0.0182223,0.0587224,-0.0372859,0.184439,0.125289
1413393238855760384,-3.10535,3.51577,3.62199,-0.11012,0.813941,0.0755088,0.565396,0.417018,0.149735,-0.032139,-0.00356209,0.0182414,0.0587504,-0.0374495,0.185793,0.124431
1413393238905760512,-3.08443,3.52216,3.61868,-0.105349,0.813601,0.0781483,0.566434,0.43809,0.115825,-0.0180983,-0.00357774,0.0182786,0.0588042,-0.037433,0.186865,0.123274
1413393238955760384,-3.06293,3.52696,3.61811,-0.0972349,0.813249,0.0837226,0.567593,0.440854,0.0822971,0.000111335,-0.00358129,0.0182773,0.0588298,-0.0372939,0.187967,0.122279
1413393239005760512,-3.04091,3.53068,3.61686,-0.0882435,0.812413,0.0893064,0.569406,0.448651,0.0577636,0.0194195,-0.00360178,0.0182671,0.0588961,-0.0367618,0.18899,0.121768
1413393239055760384,-3.01833,3.53406,3.62389,-0.0803335,0.812093,0.0948862,0.57013,0.451498,0.0729035,0.0162439,-0.00361338,0.0182746,0.0589364,-0.0372444,0.190701,0.120612
1413393239105760512,-2.99562,3.53724,3.62435,-0.0738332,0.811591,0.0989206,0.571037,0.453927,0.0557582,0.00431556,-0.00360741,0.0182944,0.0589532,-0.036899,0.191511,0.120101
1413393239155760384,-2.97296,3.54057,3.62469,-0.0691242,0.811151,0.101569,0.571786,0.453609,0.0726641,0.0249274,-0.00361145,0.0183081,0.0589969,-0.0361799,0.191852,0.119456
1413393239205760512,-2.95032,3.54472,3.62491,-0.0652056,0.811225,0.104633,0.571589,0.45285,0.098823,0.00589739,-0.00362757,0.0182928,0.0590128,-0.035821,0.191842,0.119097
1413393239255760384,-2.92765,3.54955,3.62644,-0.0633705,0.810823,0.105132,0.572274,0.450902,0.0946423,0.0110319,-0.00361601,0.0183086,0.0590349,-0.0350819,0.192592,0.118836
1413393239305760512,-2.90511,3.55514,3.62746,-0.0608882,0.810971,0.105971,0.57218,0.4494,0.126027,0.0185529,-0.00361884,0.018318,0.0590551,-0.0344143,0.192947,0.118459
1413393239355760384,-2.88261,3.56208,3.63039,-0.0598721,0.811544,0.106839,0.571312,0.446057,0.150033,0.0285765,-0.0036208,0.0183527,0.0590706,-0.0335579,0.193576,0.118065
1413393239405760512,-2.86015,3.5699,3.63289,-0.0592597,0.811811,0.106604,0.57104,0.44943,0.163,0.0324036,-0.00361166,0.0183617,0.0591226,-0.0327652,0.193881,0.117664
1413393239455760384,-2.83762,3.57896,3.63466,-0.0597231,0.812517,0.105964,0.570106,0.445757,0.195864,0.0386247,-0.00360662,0.0183596,0.0591363,-0.0317327,0.194835,0.117213
1413393239505760512,-2.815,3.58912,3.63681,-0.0575989,0.812353,0.107667,0.570239,0.453142,0.213725,0.0699054,-0.00360708,0.0183822,0.0591767,-0.0307441,0.195557,0.116775
1413393239555760384,-2.79245,3.60062,3.63897,-0.0596133,0.812957,0.105971,0.569488,0.451382,0.237803,0.0692937,-0.00359592,0.0183807,0.0591968,-0.0299035,0.19608,0.116406
1413393239605760512,-2.76995,3.61333,3.64205,-0.0636422,0.813704,0.103918,0.568364,0.451252,0.272795,0.0767265,-0.00360299,0.0183813,0.0592332,-0.0291472,0.196573,0.115821
1413393239655760384,-2.74722,3.62715,3.64756,-0.0707204,0.814275,0.0992541,0.567542,0.457873,0.278754,0.0959511,-0.0035882,0.0183988,0.0592701,-0.0286331,0.196737,0.115412
1413393239705760512,-2.72416,3.64133,3.654,-0.0811707,0.815189,0.0918835,0.566071,0.463969,0.278051,0.0941783,-0.00358616,0.0183988,0.0592986,-0.0282341,0.196633,0.115222
1413393239755760384,-2.70071,3.65525,3.65826,-0.0896968,0.815575,0.0863962,0.565091,0.472542,0.277717,0.0873956,-0.00358483,0.0184005,0.0593279,-0.0276956,0.196968,0.115072
1413393239805760512,-2.67673,3.66836,3.66309,-0.0950102,0.815978,0.0828019,0.564179,0.488733,0.244175,0.0920058,-0.00357485,0.0184065,0.0593644,-0.0271305,0.19731,0.114988
1413393239855760384,-2.6523,3.68013,3.66609,-0.0974653,0.817153,0.0807913,0.562348,0.495432,0.225221,0.0671363,-0.00356961,0.0184305,0.0593783,-0.0270352,0.197467,0.114901
1413393239905760512,-2.62708,3.69085,3.66968,-0.0954245,0.817579,0.0823445,0.561852,0.511383,0.203657,0.0812271,-0.00358213,0.0184633,0.0594073,-0.0268815,0.197853,0.114925
1413393239955760384,-2.60101,3.70048,3.67398,-0.0938926,0.817491,0.0833708,0.562088,0.530237,0.182862,0.0902507,-0.00358077,0.018476,0.0594262,-0.026678,0.198427,0.114841
1413393240005760512,-2.57405,3.7092,3.68008,-0.0900203,0.816301,0.0860326,0.564046,0.546652,0.167649,0.0859804,-0.0035841,0.0185029,0.0594521,-0.0264813,0.199098,0.114994
1413393240055760384,-2.5464,3.71734,3.68665,-0.0852602,0.815062,0.0896911,0.566004,0.554517,0.154256,0.0949065,-0.00358913,0.0185218,0.0594792,-0.0262922,0.199886,0.115172
1413393240105760512,-2.51847,3.72484,3.69035,-0.0784771,0.812825,0.0946062,0.569392,0.562158,0.141807,0.104218,-0.00357505,0.0185308,0.0595191,-0.0264657,0.200462,0.115448
1413393240155760384,-2.49034,3.73241,3.69537,-0.0726774,0.811004,0.09927,0.571958,0.560817,0.155737,0.0701626,-0.00357405,0.0185262,0.059563,-0.0262761,0.201178,0.115822
1413393240205760512,-2.46265,3.74034,3.69781,-0.0688854,0.809408,0.10275,0.57407,0.542954,0.163159,0.0268897,-0.00357515,0.0185204,0.059591,-0.0265552,0.201878,0.116153
1413393240255760384,-2.43562,3.74867,3.69773,-0.0659479,0.809259,0.105392,0.574146,0.533252,0.171421,-0.0250056,-0.00357629,0.0185315,0.0596204,-0.0268694,0.202466,0.116581
1413393240305760512,-2.40927,3.75763,3.69483,-0.0669926,0.809283,0.10498,0.574066,0.521958,0.190589,-0.0786824,-0.0035695,0.0185196,0.0596511,-0.0273462,0.203523,0.117058
1413393240355760384,-2.38318,3.76734,3.69075,-0.0689554,0.809226,0.104032,0.574087,0.51514,0.200934,-0.129652,-0.00356256,0.0185382,0.0596912,-0.0277382,0.204252,0.117659
1413393240405760512,-2.35728,3.77767,3.68327,-0.0736796,0.809384,0.100698,0.573873,0.522176,0.214589,-0.170675,-0.00355275,0.0185606,0.0597464,-0.0280033,0.204908,0.118318
1413393240455760384,-2.33143,3.78835,3.67288,-0.0779922,0.808982,0.0978657,0.574359,0.517922,0.214439,-0.216169,-0.00354743,0.0185842,0.0597844,-0.0282386,0.205565,0.118937
1413393240505760512,-2.30604,3.79901,3.66079,-0.083998,0.809163,0.0935717,0.573972,0.503504,0.209596,-0.231989,-0.00353815,0.0185834,0.0598064,-0.0285227,0.205884,0.119374
1413393240555760384,-2.28103,3.80926,3.65022,-0.0884914,0.808829,0.090161,0.574314,0.496664,0.199968,-0.196502,-0.00355865,0.0186033,0.0598263,-0.0290718,0.206586,0.119898
1413393240605760512,-2.2563,3.8188,3.64234,-0.0920375,0.808708,0.08708,0.574402,0.485966,0.181339,-0.147798,-0.00355756,0.0186123,0.0598585,-0.0296329,0.207412,0.120356
1413393240655760384,-2.23109,3.8274,3.63373,-0.0929832,0.808788,0.0856015,0.57436,0.527141,0.170979,-0.0820697,-0.00355939,0.0186129,0.0598757,-0.030236,0.208339,0.120922
1413393240705760512,-2.20386,3.83536,3.62448,-0.0918419,0.80918,0.0850076,0.574079,0.565981,0.15611,0.0688902,-0.00360015,0.0186172,0.0598866,-0.0309598,0.20882,0.121627
1413393240755760384,-2.17567,3.84253,3.61577,-0.0879266,0.808422,0.086085,0.575598,0.563812,0.144426,0.136169,-0.00359509,0.0186261,0.0598976,-0.0316281,0.208838,0.122286
1413393240805760512,-2.14762,3.84942,3.61899,-0.0839097,0.80704,0.0872178,0.57796,0.564104,0.131075,0.167771,-0.00358978,0.0186318,0.0599134,-0.0323742,0.208689,0.122294
1413393240855760384,-2.12001,3.85594,3.62429,-0.0787302,0.805463,0.0895274,0.580531,0.546056,0.130901,0.141388,-0.00360653,0.0186512,0.0599335,-0.0331032,0.208597,0.122235
1413393240905760512,-2.09321,3.86224,3.62641,-0.0758032,0.802994,0.0900386,0.58425,0.526122,0.116284,0.0827301,-0.00359903,0.0186698,0.0599711,-0.0337446,0.207835,0.122206
1413393240955760384,-2.06796,3.8682,3.63088,-0.0732445,0.800408,0.0896672,0.588168,0.486745,0.112717,0.00906037,-0.00360101,0.0186883,0.0600058,-0.0346898,0.208499,0.121699
1413393241005760512,-2.04406,3.87426,3.63588,-0.071407,0.797808,0.0893993,0.591956,0.473444,0.119802,-0.0497246,-0.00360123,0.0187004,0.0600517,-0.0357145,0.209054,0.120105
1413393241055760384,-2.02069,3.88029,3.63498,-0.0715485,0.795848,0.0875399,0.594848,0.459047,0.115559,-0.107446,-0.00359298,0.0187156,0.0600931,-0.0364469,0.209668,0.118718
1413393241105760512,-1.9984,3.88633,3.62769,-0.0742326,0.795568,0.0840225,0.5954,0.435219,0.123699,-0.180032,-0.0035933,0.0187251,0.0601218,-0.0372336,0.210472,0.117282
1413393241155760384,-1.97731,3.89231,3.62269,-0.0787421,0.7961,0.0788316,0.59482,0.40532,0.115059,-0.238505,-0.003575,0.0187231,0.060177,-0.0382501,0.212251,0.114874
1413393241205760512,-1.95764,3.89778,3.60536,-0.0832514,0.797276,0.0742652,0.593216,0.388837,0.108968,-0.263184,-0.00357467,0.0187493,0.0602073,-0.0389165,0.21252,0.113084
1413393241255760384,-1.93908,3.90248,3.58435,-0.086934,0.798942,0.0699411,0.590967,0.368194,0.0897968,-0.268553,-0.00356077,0.0187489,0.0602594,-0.0397321,0.212889,0.110744
1413393241305760512,-1.92122,3.90653,3.56972,-0.089252,0.801671,0.0667059,0.587288,0.356955,0.0667481,-0.250983,-0.00354737,0.0187556,0.0602862,-0.0399319,0.212129,0.109468
1413393241355760384,-1.90392,3.90898,3.54764,-0.0880103,0.806963,0.0658607,0.580282,0.343809,0.0484544,-0.245386,-0.00353937,0.0187671,0.0603304,-0.0405548,0.213499,0.107455
1413393241405760512,-1.88689,3.91067,3.52785,-0.0873093,0.810639,0.0648904,0.575353,0.346538,0.0231874,-0.23331,-0.00353455,0.01878,0.060354,-0.0410493,0.212624,0.105919
1413393241455760384,-1.86944,3.91125,3.5154,-0.0838168,0.813058,0.065697,0.572359,0.353976,-0.00060693,-0.198536,-0.00352172,0.0187729,0.0604092,-0.0420864,0.212762,0.103433
1413393241505760512,-1.8515,3.91132,3.51183,-0.0789222,0.813869,0.0683545,0.571592,0.357041,-0.0058571,-0.163183,-0.00351892,0.018782,0.060449,-0.0427347,0.212937,0.101406
1413393241555760384,-1.83321,3.91069,3.50797,-0.07394,0.812959,0.0709222,0.573237,0.369395,-0.0254326,-0.158136,-0.00351157,0.0187978,0.0604937,-0.0432745,0.213183,0.100175
1413393241605760512,-1.81466,3.90969,3.50449,-0.068455,0.810851,0.0741513,0.576487,0.37189,-0.0227159,-0.156763,-0.0035074,0.0188229,0.0605243,-0.0436557,0.213036,0.0986682
1413393241655760384,-1.796,3.90868,3.5008,-0.0646271,0.809217,0.076933,0.578854,0.363763,-0.0136019,-0.144155,-0.00350922,0.0187868,0.0605542,-0.0442245,0.215559,0.0972013
1413393241705760512,-1.77789,3.90767,3.49015,-0.0605439,0.807363,0.07978,0.581493,0.359939,-0.0144244,-0.145958,-0.00350884,0.0188098,0.0605851,-0.0448214,0.21691,0.095569
1413393241755760384,-1.76023,3.90706,3.47827,-0.0585654,0.806888,0.0809359,0.582196,0.354764,-0.00502388,-0.135356,-0.00351325,0.0188147,0.0606209,-0.0455296,0.217417,0.0936013
1413393241805760512,-1.74283,3.90705,3.46527,-0.0564976,0.807362,0.0829696,0.581456,0.344494,0.0154316,-0.136056,-0.00350799,0.0188231,0.0606563,-0.0462001,0.218573,0.0919541
1413393241855760384,-1.7256,3.90796,3.457,-0.055346,0.807754,0.0846853,0.580774,0.344512,0.0234403,-0.126081,-0.00351533,0.0188179,0.0606939,-0.0466374,0.219524,0.0909223
1413393241905760512,-1.70865,3.90966,3.45029,-0.0550891,0.806747,0.0852466,0.582114,0.335484,0.0412919,-0.0834746,-0.00351849,0.0188254,0.0607209,-0.047032,0.220364,0.089941
1413393241955760384,-1.69225,3.91219,3.44349,-0.0552369,0.804294,0.0870067,0.585226,0.320452,0.0676681,-0.0830546,-0.00350875,0.0188259,0.0607427,-0.0473745,0.221959,0.0892926
1413393242005760512,-1.67628,3.9157,3.4395,-0.0562042,0.802553,0.0876409,0.587425,0.314376,0.0759032,-0.0835224,-0.00352717,0.018833,0.0607614,-0.0475588,0.223861,0.0887926
1413393242055760384,-1.66129,3.92024,3.43449,-0.0569995,0.799579,0.0887526,0.591225,0.293985,0.105968,-0.061401,-0.00351661,0.018835,0.0607997,-0.0479303,0.223468,0.0877196
1413393242105760512,-1.64742,3.92569,3.42624,-0.0577773,0.796939,0.0902911,0.594473,0.273702,0.118095,-0.0529888,-0.00351614,0.0188477,0.0608395,-0.0484836,0.222021,0.0866705
1413393242155760384,-1.63502,3.93143,3.40434,-0.0608787,0.793519,0.0894451,0.59885,0.249265,0.121903,-0.0433403,-0.00352379,0.0188768,0.0608632,-0.048509,0.219791,0.0872594
1413393242205760512,-1.62434,3.93788,3.38148,-0.0649745,0.78974,0.0882286,0.603577,0.208358,0.143934,-0.0292784,-0.00352345,0.0189047,0.0608988,-0.0484723,0.215956,0.0880639
1413393242255760384,-1.6155,3.94416,3.35156,-0.0672965,0.787248,0.0881101,0.606588,0.176614,0.133446,-0.0228293,-0.00352874,0.0189232,0.0609277,-0.0484333,0.212512,0.0887438
1413393242305760512,-1.60861,3.95074,3.32701,-0.0697123,0.786378,0.0869793,0.607606,0.139181,0.128017,-0.0179868,-0.00353623,0.0189586,0.060951,-0.0488515,0.205924,0.0893927
1413393242355760384,-1.60357,3.95794,3.31059,-0.0732159,0.787769,0.0856985,0.605571,0.106184,0.139147,-0.0293582,-0.00354962,0.0189991,0.0609868,-0.0498142,0.197951,0.0900428
1413393242405760512,-1.59987,3.96463,3.30056,-0.0781743,0.791339,0.083161,0.600629,0.0713766,0.127892,-0.0225922,-0.00353971,0.0190128,0.0610406,-0.0518716,0.194318,0.0879628
1413393242455760384,-1.59709,3.97106,3.3008,-0.083562,0.796905,0.0799858,0.592927,0.0479192,0.118037,-0.0185351,-0.00353429,0.0190201,0.0610724,-0.0526454,0.192542,0.0872186
1413393242505760512,-1.59556,3.97563,3.28167,-0.0895885,0.803408,0.0762011,0.583697,0.0308852,0.103061,-0.0271247,-0.00352619,0.0190138,0.0611158,-0.0541166,0.1949,0.0844958
1413393242555760384,-1.59423,3.97909,3.26283,-0.0938805,0.809032,0.0736878,0.575521,0.0349978,0.0776449,0.00255391,-0.00351051,0.0190148,0.0611483,-0.0558485,0.198745,0.0820677
1413393242605760512,-1.59256,3.98155,3.24722,-0.0969625,0.813389,0.0717184,0.569082,0.0435866,0.0482976,0.0100463,-0.00350649,0.0190034,0.0611704,-0.056938,0.201991,0.0804557
1413393242655760384,-1.59002,3.98255,3.22935,-0.0984742,0.816078,0.0710391,0.565042,0.063064,0.0317536,0.0314377,-0.00350058,0.0189973,0.0611983,-0.0582495,0.207025,0.0777712
1413393242705760512,-1.58636,3.98272,3.22246,-0.100347,0.817095,0.0695338,0.563428,0.0882232,-0.00304713,0.0336936,-0.00349309,0.0190049,0.0612141,-0.058929,0.208997,0.0763299
1413393242755760384,-1.58168,3.98161,3.21584,-0.104189,0.816952,0.0679164,0.563135,0.10397,-0.0218697,0.063193,-0.00348799,0.0190069,0.0612573,-0.0593763,0.210568,0.074928
1413393242805760512,-1.57586,3.97947,3.2168,-0.105666,0.81602,0.0692472,0.564049,0.129404,-0.0556504,0.0668776,-0.00348055,0.0190056,0.0612886,-0.0597078,0.210712,0.0738292
1413393242855760384,-1.5689,3.97594,3.21787,-0.105395,0.814777,0.0737223,0.565328,0.149505,-0.0817493,0.0876348,-0.00347517,0.0190006,0.0613245,-0.0599888,0.211602,0.0723005
1413393242905760512,-1.56076,3.97144,3.22273,-0.100323,0.813012,0.0838972,0.56737,0.16508,-0.0928542,0.0782168,-0.00347148,0.0189942,0.0613494,-0.0600669,0.212003,0.0719875
1413393242955760384,-1.5522,3.96601,3.22594,-0.096554,0.812665,0.0938752,0.566957,0.176168,-0.120861,0.0958127,-0.00346204,0.0189908,0.0613727,-0.0606185,0.21316,0.070202
1413393243005760512,-1.54322,3.96042,3.23086,-0.0943289,0.812782,0.10462,0.56528,0.185685,-0.108496,0.0975482,-0.00346041,0.0190013,0.0614083,-0.0608966,0.213391,0.0692327
1413393243055760384,-1.53359,3.95508,3.23517,-0.0943395,0.812352,0.116303,0.563612,0.197353,-0.102665,0.0856639,-0.00345713,0.0190014,0.0614449,-0.0609825,0.213517,0.0686365
1413393243105760512,-1.52347,3.95001,3.23232,-0.0961747,0.812183,0.12732,0.561159,0.21386,-0.0997639,0.0990566,-0.00345,0.0190045,0.0614749,-0.0608781,0.21308,0.069029
1413393243155760384,-1.51331,3.94571,3.22194,-0.10129,0.810452,0.138546,0.560101,0.220827,-0.0671979,0.118674,-0.00345775,0.0190511,0.0614974,-0.060961,0.210742,0.0693859
1413393243205760512,-1.5022,3.9425,3.22309,-0.107991,0.806197,0.149158,0.56226,0.232275,-0.0547375,0.143944,-0.00346571,0.0190555,0.0615216,-0.0608246,0.209765,0.0695224
1413393243255760384,-1.49038,3.93958,3.23034,-0.114473,0.800022,0.157453,0.567511,0.242882,-0.0641866,0.143349,-0.0034564,0.0190455,0.061561,-0.0610947,0.210899,0.0689768
1413393243305760512,-1.47846,3.93699,3.23612,-0.120392,0.79368,0.165229,0.572955,0.232483,-0.036634,0.0943218,-0.00346055,0.0190526,0.061584,-0.0613016,0.211723,0.0683478
1413393243355760384,-1.46671,3.93479,3.23856,-0.126652,0.788804,0.17105,0.57662,0.234309,-0.0492012,0.0434138,-0.00346254,0.019046,0.0616079,-0.0615358,0.212941,0.0674617
1413393243405760512,-1.45553,3.93242,3.23892,-0.131251,0.78423,0.17569,0.580422,0.217606,-0.0514253,-0.00351708,-0.0034575,0.0190528,0.0616362,-0.0618116,0.213064,0.0665681
1413393243455760384,-1.44532,3.93025,3.23748,-0.135652,0.781094,0.180137,0.582272,0.196479,-0.0401579,-0.0396333,-0.003455,0.0190488,0.0616692,-0.0619118,0.213142,0.0656522
1413393243505760512,-1.43577,3.92795,3.23346,-0.139387,0.77856,0.183495,0.583734,0.180016,-0.0462464,-0.102699,-0.00345957,0.0190662,0.0616894,-0.0622681,0.213015,0.0655748
1413393243555760384,-1.42703,3.92557,3.22711,-0.142691,0.777093,0.186225,0.584026,0.158767,-0.0520939,-0.143267,-0.00346472,0.0190735,0.0617046,-0.0625548,0.213132,0.0658152
1413393243605760512,-1.41945,3.92285,3.2206,-0.144689,0.77642,0.18879,0.583606,0.139765,-0.0555938,-0.148773,-0.00345213,0.019075,0.0617393,-0.0626399,0.21282,0.0657225
1413393243655760384,-1.413,3.91992,3.21483,-0.145852,0.776363,0.191138,0.582627,0.113623,-0.0584579,-0.156515,-0.00345702,0.0190855,0.0617579,-0.0629483,0.212788,0.0657552
1413393243705760512,-1.40799,3.91674,3.20784,-0.145873,0.77716,0.193732,0.580699,0.0891882,-0.0539265,-0.123775,-0.00345765,0.0190837,0.0617994,-0.0632838,0.21278,0.0653053
1413393243755760384,-1.40418,3.91354,3.20154,-0.145994,0.778471,0.195386,0.578355,0.0647909,-0.0608888,-0.112087,-0.0034423,0.0190826,0.0618403,-0.0634202,0.212604,0.064625
1413393243805760512,-1.40138,3.91026,3.19697,-0.145179,0.779675,0.197109,0.576349,0.0393101,-0.0624637,-0.0826281,-0.00344509,0.0190936,0.0618754,-0.063648,0.212569,0.0640165
1413393243855760384,-1.39992,3.90709,3.19446,-0.146353,0.780271,0.197395,0.575147,0.0199964,-0.0558654,-0.07288,-0.00343923,0.0190989,0.0619151,-0.0638972,0.212252,0.0635817
1413393243905760512,-1.39937,3.90371,3.19208,-0.145798,0.780451,0.198218,0.57476,0.00626912,-0.0595991,-0.0387308,-0.00342521,0.0191032,0.0619369,-0.0640938,0.211751,0.0629803
1413393243955760384,-1.39945,3.90043,3.19045,-0.145777,0.780356,0.198639,0.57475,-0.0115285,-0.0554575,-0.0280023,-0.00341766,0.0191069,0.0619617,-0.0641526,0.211863,0.0627986
1413393244005760512,-1.40035,3.89719,3.19057,-0.14549,0.780611,0.199002,0.57435,-0.0245094,-0.0500012,-0.0221313,-0.00340807,0.0191188,0.0619719,-0.0641777,0.211627,0.0622784
1413393244055760384,-1.40192,3.89402,3.19049,-0.144205,0.780201,0.199485,0.575062,-0.0381517,-0.0455543,-0.0013484,-0.00338408,0.0191454,0.0619938,-0.0641648,0.21194,0.0617629
1413393244105760512,-1.40431,3.89106,3.18968,-0.143135,0.780401,0.199969,0.57489,-0.0571409,-0.0399024,0.0215189,-0.00336869,0.0191584,0.0620243,-0.0641675,0.212383,0.0617615
1413393244155760384,-1.40759,3.88842,3.18935,-0.142621,0.780372,0.201164,0.57464,-0.0797354,-0.0335359,0.00404776,-0.00335644,0.0191568,0.0620397,-0.0639538,0.212566,0.0614284
1413393244205760512,-1.41192,3.88631,3.19122,-0.144536,0.779799,0.203189,0.574228,-0.0966404,-0.0106861,0.00865514,-0.00333478,0.0191679,0.0620606,-0.0641002,0.212839,0.0604567
1413393244255760384,-1.41705,3.8846,3.18659,-0.146422,0.779287,0.207495,0.572904,-0.112266,-0.000888287,0.0149854,-0.00332591,0.0191765,0.0620736,-0.0639445,0.210647,0.0610307
1413393244305760512,-1.42307,3.8836,3.17566,-0.148967,0.778568,0.21309,0.571169,-0.128696,0.0143421,0.0297763,-0.00330672,0.0191771,0.0620872,-0.0637509,0.209671,0.0617817
1413393244355760384,-1.42988,3.88373,3.1627,-0.15325,0.777486,0.219628,0.569028,-0.14317,0.0383246,0.0182881,-0.00330563,0.0191907,0.0621095,-0.0634473,0.208602,0.0624436
1413393244405760512,-1.43688,3.88513,3.16178,-0.158162,0.775328,0.224657,0.568666,-0.14281,0.0305299,-0.0162182,-0.00331049,0.0191805,0.062132,-0.0633922,0.20812,0.0620164
1413393244455760384,-1.44445,3.88647,3.16188,-0.163984,0.772976,0.228138,0.568832,-0.165359,0.0341514,-0.0549597,-0.00330758,0.0191833,0.0621572,-0.0636453,0.209578,0.0615795
1413393244505760512,-1.45322,3.8882,3.15842,-0.16973,0.771424,0.231302,0.567975,-0.181789,0.0366354,-0.114684,-0.00330776,0.0191952,0.0621824,-0.063632,0.209355,0.0610151
1413393244555760384,-1.46281,3.8896,3.14564,-0.174919,0.769824,0.233389,0.567719,-0.190097,0.0203272,-0.178052,-0.00330842,0.0192028,0.0622158,-0.0637677,0.208216,0.0602083
1413393244605760512,-1.47301,3.89085,3.12452,-0.179218,0.769485,0.235684,0.565887,-0.198446,0.0294695,-0.207683,-0.00331055,0.0192224,0.0622444,-0.0637327,0.207233,0.059691
1413393244655760384,-1.48393,3.8916,3.09281,-0.18312,0.76929,0.237637,0.564082,-0.197173,0.0286099,-0.177946,-0.00331019,0.0192084,0.0622818,-0.064098,0.206614,0.0577147
1413393244705760512,-1.49506,3.89225,3.07041,-0.186209,0.768139,0.239501,0.563851,-0.235303,-0.00122612,-0.113836,-0.00330784,0.0192308,0.0623123,-0.0641399,0.206082,0.0567028
1413393244755760384,-1.508,3.89182,3.05997,-0.190838,0.768883,0.239168,0.561425,-0.253365,-0.0188645,-0.109643,-0.00331108,0.0192441,0.062329,-0.063411,0.20435,0.0569746
1413393244805760512,-1.52099,3.89054,3.05513,-0.195947,0.76895,0.237897,0.560113,-0.254652,-0.0273134,-0.0463514,-0.00331734,0.0192613,0.0623673,-0.062645,0.203425,0.05738
1413393244855760384,-1.53421,3.88842,3.05263,-0.199225,0.769702,0.23737,0.558143,-0.265433,-0.042677,0.0429561,-0.00331415,0.019278,0.0623886,-0.0619269,0.201677,0.0575106
1413393244905760512,-1.54636,3.88634,3.06097,-0.201635,0.769806,0.236279,0.557597,-0.228114,-0.0474184,0.13388,-0.00330983,0.0192805,0.0624257,-0.0609936,0.201178,0.0577806
1413393244955760384,-1.55753,3.88359,3.07067,-0.202022,0.769573,0.236324,0.557759,-0.234999,-0.0674886,0.202726,-0.00331242,0.0192934,0.0624615,-0.0600437,0.200228,0.0577945
1413393245005760512,-1.56943,3.87959,3.07813,-0.199028,0.770588,0.238405,0.556548,-0.233242,-0.0874554,0.189478,-0.0033065,0.0193036,0.0624914,-0.0590644,0.198876,0.0577847
1413393245055760384,-1.58146,3.87461,3.07746,-0.196306,0.772761,0.239484,0.554033,-0.236722,-0.100098,0.157743,-0.00330432,0.0193049,0.0625108,-0.0577711,0.197804,0.0586961
1413393245105760512,-1.59335,3.86933,3.07828,-0.192943,0.775116,0.241433,0.551071,-0.23565,-0.104796,0.105819,-0.00330821,0.0192994,0.0625269,-0.0565169,0.197155,0.0589657
1413393245155760384,-1.60471,3.86392,3.08135,-0.190548,0.778128,0.242147,0.547333,-0.223842,-0.113869,0.0595381,-0.00330843,0.0193011,0.0625483,-0.0555269,0.196553,0.0589211
1413393245205760512,-1.61569,3.85828,3.08506,-0.187828,0.781055,0.243226,0.543613,-0.216616,-0.116983,0.0175584,-0.00329595,0.0192886,0.0625806,-0.0545362,0.195241,0.0588541
1413393245255760384,-1.62637,3.85229,3.0813,-0.185243,0.782147,0.244544,0.542337,-0.206963,-0.119553,-0.0375281,-0.0033032,0.0192731,0.0625991,-0.0537431,0.195058,0.0591029
1413393245305760512,-1.63654,3.84632,3.06204,-0.182896,0.782802,0.245649,0.541689,-0.192609,-0.106664,-0.0958456,-0.00331692,0.0192883,0.0626163,-0.0527925,0.193984,0.0612159
1413393245355760384,-1.6463,3.84064,3.03378,-0.180606,0.782099,0.247029,0.542843,-0.18246,-0.0976398,-0.137079,-0.0033201,0.0193086,0.0626304,-0.0521003,0.193489,0.0636738
1413393245405760512,-1.65509,3.83586,3.0219,-0.179001,0.781095,0.247768,0.544482,-0.161159,-0.0961465,-0.168977,-0.00332446,0.0192975,0.0626372,-0.0514265,0.192453,0.0643118
1413393245455760384,-1.66315,3.83175,3.01803,-0.176975,0.779521,0.248851,0.546901,-0.164592,-0.088848,-0.210394,-0.00334441,0.019335,0.0626685,-0.0505082,0.190694,0.0661865
1413393245505760512,-1.67148,3.82757,3.00455,-0.175416,0.777929,0.249729,0.549264,-0.164874,-0.0751412,-0.235711,-0.00333768,0.019365,0.0627175,-0.0493917,0.190216,0.0666583
1413393245555760384,-1.67911,3.82456,3.01383,-0.173856,0.775921,0.250176,0.552388,-0.159839,-0.073873,-0.230076,-0.00335321,0.0193576,0.0627069,-0.0479475,0.19077,0.0680235
1413393245605760512,-1.67442,3.83083,3.1013,-0.171782,0.785897,0.249786,0.538948,-0.17616,-0.0659355,-0.22064,-0.00364489,0.0200099,0.061722,0.0771896,0.299911,0.418036
1413393245655760384,-1.68194,3.82819,3.09372,-0.170496,0.784861,0.249867,0.540825,-0.181978,-0.0545744,-0.212004,-0.00367227,0.0200368,0.061686,0.0828628,0.307821,0.432903
1413393245705760512,-1.69124,3.82558,3.08382,-0.168027,0.783758,0.250301,0.542992,-0.182014,-0.0450023,-0.190425,-0.00367572,0.0200665,0.0617523,0.080862,0.30783,0.431043
1413393245755760384,-1.70066,3.82344,3.0744,-0.166042,0.78435,0.249756,0.542998,-0.192229,-0.0356669,-0.179285,-0.00366589,0.0200756,0.0617648,0.0796004,0.30991,0.430746
1413393245805760512,-1.7105,3.82188,3.06562,-0.164932,0.785352,0.248262,0.542573,-0.201043,-0.0230411,-0.164386,-0.00366132,0.0200936,0.0617853,0.0782009,0.31197,0.429675
1413393245855760384,-1.72065,3.82097,3.0579,-0.165747,0.786329,0.245442,0.542193,-0.205862,-0.0140842,-0.143563,-0.00366889,0.0201087,0.0618048,0.0778079,0.312449,0.428955
1413393245905760512,-1.73121,3.8205,3.05051,-0.167201,0.788428,0.242108,0.540193,-0.20928,-0.00723968,-0.148249,-0.00365833,0.0201019,0.0618312,0.0764512,0.313428,0.427595
1413393245955760384,-1.74201,3.82052,3.04369,-0.170464,0.790728,0.237761,0.537737,-0.214699,0.00508002,-0.13964,-0.00365691,0.0200894,0.0618565,0.0743441,0.313501,0.426081
1413393246005760512,-1.75282,3.82085,3.03684,-0.174942,0.794203,0.232559,0.533436,-0.212745,0.0104,-0.133403,-0.0036665,0.0200879,0.0618886,0.0715963,0.312525,0.424614
1413393246055760384,-1.76301,3.82116,3.0304,-0.179787,0.797623,0.227126,0.529045,-0.193212,0.00378656,-0.126747,-0.00366123,0.0200704,0.0618802,0.0702608,0.311469,0.423988
1413393246105760512,-1.77237,3.82117,3.024,-0.18333,0.801239,0.222429,0.524339,-0.174627,-0.00410406,-0.126057,-0.00366617,0.0200464,0.0619093,0.0680737,0.311114,0.422983
1413393246155760384,-1.78069,3.82083,3.01785,-0.187133,0.803201,0.219334,0.521289,-0.149623,-0.00190932,-0.105493,-0.00366965,0.0200586,0.0619372,0.0652326,0.311076,0.42099
1413393246205760512,-1.7874,3.82042,3.01288,-0.189755,0.802574,0.219902,0.521068,-0.115597,-0.0129932,-0.0946878,-0.00366047,0.0200647,0.0619502,0.0639105,0.311658,0.42035
1413393246255760384,-1.79268,3.81961,3.00822,-0.190723,0.800178,0.22417,0.522578,-0.0929895,-0.0197931,-0.0915604,-0.00366686,0.0200688,0.0619794,0.0622465,0.311975,0.419051
1413393246305760512,-1.7969,3.81861,3.00402,-0.189688,0.795644,0.232709,0.526132,-0.0708265,-0.0131075,-0.0737708,-0.0036664,0.0200832,0.0620026,0.0605326,0.312674,0.418245
1413393246355760384,-1.80022,3.81759,3.00015,-0.188631,0.790121,0.242493,0.5304,-0.058517,-0.0189571,-0.0817122,-0.00366568,0.0201044,0.0620342,0.0587876,0.31276,0.417509
1413393246405760512,-1.80294,3.8164,2.99646,-0.188919,0.784701,0.250789,0.534471,-0.0481583,-0.0266725,-0.0647587,-0.00367719,0.020123,0.0620487,0.0569344,0.313587,0.416892
1413393246455760384,-1.80544,3.81522,2.9938,-0.190384,0.779317,0.257862,0.538448,-0.0505641,-0.0190752,-0.0531002,-0.00368734,0.0201368,0.062073,0.0551179,0.314098,0.41629
1413393246505760512,-1.80806,3.81397,2.99104,-0.192188,0.775276,0.263554,0.54088,-0.054962,-0.0296236,-0.0545996,-0.00369203,0.0201648,0.0621028,0.0535984,0.314669,0.41575
1413393246555760384,-1.81108,3.81258,2.98817,-0.193558,0.772152,0.26852,0.542415,-0.0637266,-0.0273574,-0.062994,-0.00369958,0.0201797,0.0621234,0.0520312,0.315318,0.415229
1413393246605760512,-1.81454,3.81107,2.98513,-0.194616,0.770411,0.273052,0.542249,-0.0782787,-0.0314199,-0.0681673,-0.00368788,0.020182,0.0621483,0.0510755,0.316402,0.414277
1413393246655760384,-1.81869,3.80932,2.9817,-0.195262,0.770586,0.276375,0.540081,-0.0857985,-0.0397537,-0.0645273,-0.00368552,0.0201761,0.0621731,0.0502311,0.317199,0.413577
1413393246705760512,-1.82336,3.80756,2.97864,-0.195566,0.770399,0.279154,0.538807,-0.100428,-0.031933,-0.062129,-0.00367655,0.0201704,0.0622057,0.049348,0.318394,0.412886
1413393246755760384,-1.82847,3.80612,2.97584,-0.196394,0.770251,0.280755,0.537885,-0.109208,-0.025587,-0.0452428,-0.00367012,0.0201681,0.0622307,0.0485294,0.319519,0.411888
1413393246805760512,-1.83412,3.80478,2.97267,-0.196638,0.769531,0.282281,0.538027,-0.116118,-0.0258974,-0.0694652,-0.0036777,0.020153,0.0622507,0.0473038,0.320212,0.411175
1413393246855760384,-1.84033,3.80373,2.96846,-0.197054,0.768924,0.283736,0.537977,-0.129903,-0.0152096,-0.0954095,-0.00367057,0.0201512,0.0622756,0.0459231,0.321375,0.410128
1413393246905760512,-1.84716,3.80315,2.96345,-0.197723,0.767731,0.285093,0.538717,-0.144356,-0.00584523,-0.102711,-0.00366997,0.0201462,0.0622999,0.0444269,0.322358,0.409066
1413393246955760384,-1.85467,3.80304,2.95761,-0.199842,0.766026,0.285608,0.540088,-0.158498,0.00175386,-0.140925,-0.00367464,0.020164,0.062323,0.0424328,0.323007,0.408324
1413393247005760512,-1.86298,3.8032,2.9505,-0.200761,0.765366,0.286958,0.539967,-0.172992,0.00444196,-0.149295,-0.00367791,0.0201765,0.0623456,0.0404077,0.323432,0.407866
1413393247055760384,-1.8721,3.80354,2.94243,-0.201885,0.765005,0.287931,0.539542,-0.190791,0.00929574,-0.170684,-0.00366856,0.0201496,0.0623839,0.039147,0.324599,0.407192
1413393247105760512,-1.88192,3.80414,2.93352,-0.20315,0.764445,0.289025,0.539277,-0.202264,0.0187677,-0.176848,-0.00366364,0.0201562,0.0624036,0.0377962,0.326052,0.406278
1413393247155760384,-1.89241,3.80517,2.9239,-0.204892,0.764916,0.289712,0.537578,-0.21809,0.0214474,-0.200148,-0.00369585,0.0202271,0.062387,0.033848,0.325908,0.405478
1413393247205760512,-1.90343,3.80624,2.9128,-0.207355,0.766621,0.289989,0.534044,-0.228325,0.0264328,-0.231244,-0.00368017,0.020174,0.0624325,0.0330455,0.328606,0.404337
1413393247255760384,-1.91482,3.80742,2.90071,-0.209291,0.770061,0.290618,0.527963,-0.227113,0.0252793,-0.24674,-0.00369918,0.0202386,0.0624131,0.0300662,0.3289,0.403416
1413393247305760512,-1.92624,3.80874,2.88782,-0.210968,0.774581,0.291064,0.520383,-0.228728,0.0290375,-0.264341,-0.0037029,0.0202444,0.062442,0.0277044,0.329513,0.402986
1413393247355760384,-1.93724,3.81027,2.87441,-0.211603,0.77916,0.292156,0.512619,-0.210204,0.0392104,-0.256547,-0.00370111,0.0202487,0.0624526,0.0259004,0.331552,0.402146
1413393247405760512,-1.94743,3.81233,2.8615,-0.213726,0.782854,0.292283,0.505996,-0.196846,0.0484623,-0.256578,-0.00370464,0.0202351,0.0624753,0.0240924,0.33266,0.402199
1413393247455760384,-1.95625,3.81498,2.8489,-0.215256,0.785658,0.292984,0.500567,-0.167705,0.0671625,-0.25227,-0.00368878,0.0201907,0.0625288,0.0232549,0.33601,0.402321
1413393247505760512,-1.96355,3.81821,2.83706,-0.218653,0.788018,0.291557,0.496198,-0.132573,0.0658912,-0.243188,-0.00366462,0.0201636,0.0625555,0.0220918,0.338679,0.402328
1413393247555760384,-1.96911,3.82186,2.82586,-0.220339,0.789432,0.291685,0.493121,-0.0877787,0.0861127,-0.203939,-0.00366607,0.0201921,0.0625776,0.0195452,0.338786,0.402062
1413393247605760512,-1.97272,3.82606,2.81532,-0.224151,0.791055,0.290367,0.489567,-0.0563327,0.0920976,-0.221663,-0.00366625,0.0201745,0.062615,0.0179094,0.340325,0.402051
1413393247655760384,-1.97431,3.83048,2.80503,-0.227267,0.791415,0.289812,0.487873,-0.00959643,0.0851658,-0.217752,-0.00365454,0.0201614,0.062647,0.0161532,0.341724,0.401649
1413393247705760512,-1.97341,3.83519,2.79439,-0.228931,0.790768,0.290416,0.487786,0.0394377,0.0965252,-0.220822,-0.00366169,0.0201894,0.0626527,0.0133131,0.341439,0.401374
1413393247755760384,-1.97022,3.84039,2.78415,-0.23297,0.789941,0.289973,0.487477,0.083429,0.108742,-0.194121,-0.00366328,0.0201944,0.0626641,0.0104423,0.34119,0.401143
1413393247805760512,-1.96478,3.84554,2.77365,-0.236135,0.790167,0.290079,0.48552,0.144389,0.107735,-0.184807,-0.00365309,0.0202045,0.0626897,0.00806128,0.341223,0.401074
1413393247855760384,-1.95699,3.85048,2.76444,-0.240631,0.78845,0.288747,0.486897,0.187455,0.103004,-0.177302,-0.0036539,0.0202093,0.0627126,0.0058505,0.341627,0.400715
1413393247905760512,-1.9459,3.85596,2.75824,-0.247603,0.783242,0.286393,0.493157,0.24093,0.108752,-0.0929426,-0.00364579,0.0202254,0.0627287,0.00403884,0.342356,0.39997
1413393247955760384,-1.9321,3.86098,2.75514,-0.249669,0.774946,0.28789,0.504225,0.296502,0.0927293,-0.0571548,-0.00365365,0.0202062,0.0627533,0.00270762,0.343156,0.399066
1413393248005760512,-1.91698,3.86514,2.75092,-0.25107,0.767639,0.287963,0.51456,0.301278,0.0670438,-0.0854036,-0.0036426,0.0202052,0.0627665,0.00115435,0.343685,0.398257
1413393248055760384,-1.90206,3.86739,2.74625,-0.251207,0.76097,0.28961,0.523398,0.297796,0.0332602,-0.0761876,-0.00364044,0.0202057,0.0627867,-0.000366963,0.344133,0.397316
1413393248105760512,-1.88711,3.86799,2.74155,-0.249226,0.756645,0.292129,0.529184,0.293257,-0.0159175,-0.108656,-0.00363343,0.0202206,0.0628071,-0.00179306,0.344535,0.396415
1413393248155760384,-1.8728,3.86631,2.73657,-0.247914,0.753612,0.29404,0.533055,0.287382,-0.0357997,-0.0890231,-0.0036185,0.0202375,0.0628384,-0.00311682,0.344932,0.395462
1413393248205760512,-1.85804,3.86396,2.73284,-0.244908,0.752334,0.296833,0.5347,0.285337,-0.0663145,-0.0672191,-0.00362337,0.0202424,0.0628603,-0.00417562,0.345268,0.394259
1413393248255760384,-1.84428,3.85958,2.73006,-0.241869,0.753992,0.298705,0.532701,0.281923,-0.101748,-0.0276353,-0.00362889,0.0202616,0.0628983,-0.00430397,0.345065,0.393792
1413393248305760512,-1.83032,3.85463,2.72929,-0.236565,0.756494,0.301902,0.529726,0.264308,-0.106216,-0.0216402,-0.00362198,0.020264,0.0629117,-0.00408534,0.345129,0.393386
1413393248355760384,-1.81726,3.8485,2.72919,-0.234952,0.757169,0.302522,0.529126,0.252385,-0.138063,-0.000740429,-0.00362182,0.02028,0.0629399,-0.00383669,0.345342,0.392607
1413393248405760512,-1.80493,3.84127,2.72988,-0.233272,0.756709,0.30195,0.53085,0.239926,-0.159633,0.027525,-0.00361534,0.0202923,0.0629686,-0.0031769,0.345556,0.392078
1413393248455760384,-1.7935,3.83356,2.73218,-0.233997,0.754227,0.300221,0.535028,0.215095,-0.15155,0.0651059,-0.00360272,0.0203003,0.0629924,-0.00211064,0.345704,0.391466
1413393248505760512,-1.78309,3.82498,2.73565,-0.236238,0.751094,0.297004,0.54022,0.197997,-0.183151,0.0651249,-0.00359982,0.0203045,0.0630116,-0.000715487,0.345721,0.390756
1413393248555760384,-1.77311,3.81584,2.7397,-0.237603,0.748543,0.293572,0.545017,0.204252,-0.185581,0.100782,-0.00360072,0.0203066,0.0630324,0.00100545,0.345512,0.390248
1413393248605760512,-1.76369,3.80635,2.74619,-0.238705,0.746181,0.291036,0.549119,0.165035,-0.204749,0.141977,-0.00358728,0.0202973,0.0630527,0.00271238,0.345456,0.390015
1413393248655760384,-1.75591,3.79537,2.75328,-0.239365,0.74567,0.288643,0.550786,0.141697,-0.240234,0.154933,-0.00357695,0.0203078,0.0630721,0.00468705,0.345576,0.389872
1413393248705760512,-1.74976,3.78248,2.76041,-0.236832,0.7467,0.288165,0.550737,0.11556,-0.271343,0.144363,-0.00356069,0.0203109,0.0630903,0.00674046,0.345255,0.389745
1413393248755760384,-1.74501,3.76843,2.76804,-0.233453,0.749206,0.288475,0.548609,0.0764525,-0.292678,0.161723,-0.00354992,0.0203336,0.0630961,0.00883807,0.345094,0.389535
1413393248805760512,-1.74156,3.75311,2.77623,-0.229322,0.75279,0.288988,0.545166,0.0625019,-0.3114,0.165531,-0.00353088,0.0203271,0.0631587,0.0110081,0.344899,0.389723
1413393248855760384,-1.73906,3.73719,2.78448,-0.223413,0.75806,0.290332,0.539573,0.0394857,-0.324442,0.149881,-0.00350653,0.0203149,0.0631485,0.0126638,0.345155,0.389114
1413393248905760512,-1.73746,3.7209,2.79132,-0.217833,0.765418,0.29148,0.530776,0.0275788,-0.325462,0.124219,-0.00350652,0.020315,0.0631486,0.0142781,0.345326,0.388502
1413393248955760384,-1.73621,3.70462,2.79638,-0.212165,0.772393,0.292258,0.522476,0.0240235,-0.324182,0.079908,-0.00350651,0.020315,0.0631486,0.015826,0.345441,0.387917
1413393249005760512,-1.73488,3.68914,2.79968,-0.207983,0.777922,0.292236,0.515925,0.0268252,-0.298776,0.0399159,-0.00350649,0.020315,0.0631487,0.017303,0.345503,0.387367
1413393249055760384,-1.73341,3.67447,2.80102,-0.204879,0.78156,0.291452,0.512098,0.0330708,-0.282813,0.0150128,-0.00350648,0.020315,0.0631488,0.0187138,0.345523,0.386859
1413393249105760512,-1.73173,3.66079,2.80068,-0.202633,0.783668,0.290242,0.510455,0.035883,-0.263329,-0.0241513,-0.00350647,0.020315,0.0631489,0.0200726,0.345518,0.386385
1413393249155760384,-1.72952,3.64831,2.79833,-0.201307,0.784491,0.288269,0.510833,0.0505885,-0.238604,-0.0636719,-0.00349607,0.0203083,0.0631473,0.0213552,0.345525,0.385855
1413393249205760512,-1.7268,3.63698,2.79478,-0.200865,0.783612,0.286252,0.513484,0.061066,-0.216339,-0.0770255,-0.00347867,0.0203061,0.0631454,0.0226141,0.345505,0.385285
1413393249255760384,-1.72345,3.62672,2.79118,-0.199534,0.782124,0.28485,0.517039,0.0722279,-0.193743,-0.0733796,-0.00347211,0.0203083,0.0631451,0.0239288,0.345477,0.384829
1413393249305760512,-1.71962,3.61723,2.78763,-0.199508,0.781121,0.282804,0.519681,0.0825543,-0.177831,-0.0525065,-0.00348684,0.0203382,0.0630808,0.0244676,0.346666,0.382036
1413393249355760384,-1.71533,3.60888,2.78516,-0.197928,0.779928,0.282752,0.522099,0.0887914,-0.149929,-0.0343751,-0.00348615,0.0203374,0.0630812,0.0257925,0.346703,0.381438
1413393249405760512,-1.71062,3.60157,2.78354,-0.196199,0.77871,0.283353,0.524241,0.096162,-0.142181,-0.0335377,-0.00348618,0.0203375,0.0630813,0.0272854,0.346752,0.381211
1413393249455760384,-1.70591,3.59509,2.78184,-0.192634,0.777234,0.285671,0.526489,0.0944361,-0.117792,-0.034885,-0.00348526,0.0203365,0.063082,0.0286321,0.346751,0.380624
1413393249505760512,-1.70138,3.58984,2.7802,-0.188789,0.775207,0.289224,0.528925,0.0875519,-0.0894407,-0.0266183,-0.00348538,0.0203368,0.063082,0.0301576,0.346839,0.380564
1413393249555760384,-1.6972,3.58583,2.7776,-0.182517,0.773182,0.294493,0.531179,0.0781186,-0.0680948,-0.0532686,-0.00349404,0.0203373,0.0630609,0.0312519,0.346576,0.379096
1413393249605760512,-1.69211,3.59105,2.75559,-0.178172,0.770268,0.298657,0.534553,0.0561163,-0.0347018,-0.079815,-0.00371857,0.0204109,0.0626197,0.0210849,0.344283,0.342093
1413393249655760384,-1.71517,3.58497,2.71695,-0.173325,0.762516,0.296672,0.548191,0.0392568,-0.000356466,-0.115611,-0.00335762,0.0200562,0.063087,-0.0472348,0.272927,0.161372
1413393249705760512,-1.71511,3.58454,2.7127,-0.176527,0.761795,0.296149,0.548455,0.0184923,0.0379915,-0.145475,-0.00327997,0.0200687,0.063272,-0.046386,0.271842,0.160274
1413393249755760384,-1.7132,3.58911,2.70518,-0.180772,0.761875,0.295421,0.547352,-0.0130765,0.0673827,-0.173144,-0.00331403,0.0200638,0.0632632,-0.0394845,0.274421,0.175087
1413393249805760512,-1.71483,3.59265,2.69618,-0.186038,0.761539,0.293405,0.54714,-0.0396688,0.0901686,-0.18161,-0.00325338,0.0200709,0.0633979,-0.0385792,0.27359,0.173416
1413393249855760384,-1.7173,3.59758,2.68666,-0.190418,0.760763,0.291488,0.547737,-0.0558709,0.104863,-0.191257,-0.00322019,0.0200793,0.0634859,-0.0368258,0.272892,0.174058
1413393249905760512,-1.72068,3.60337,2.6769,-0.194066,0.759792,0.290168,0.548505,-0.0882829,0.123841,-0.203941,-0.00317051,0.020093,0.0635572,-0.0349574,0.273105,0.17517
1413393249955760384,-1.72494,3.61015,2.66745,-0.196105,0.760154,0.289798,0.547472,-0.101349,0.133005,-0.186683,-0.00317857,0.0201092,0.0635732,-0.032514,0.273379,0.178441
1413393250005760512,-1.72971,3.61722,2.65863,-0.19722,0.76268,0.289033,0.543952,-0.10444,0.128077,-0.178901,-0.00318401,0.0201283,0.0636112,-0.0298264,0.274352,0.182848
1413393250055760384,-1.73503,3.62485,2.65043,-0.196108,0.765359,0.289499,0.540331,-0.116559,0.160073,-0.178292,-0.0031546,0.0201093,0.0636753,-0.0272577,0.273321,0.187401
1413393250105760512,-1.74068,3.63312,2.64278,-0.194709,0.768055,0.290011,0.536725,-0.117699,0.169702,-0.157179,-0.00312374,0.0200982,0.0637534,-0.0254925,0.272019,0.19087
1413393250155760384,-1.74645,3.64193,2.63542,-0.193932,0.770219,0.289231,0.534321,-0.115423,0.187701,-0.145575,-0.00313676,0.0200718,0.0637703,-0.0247991,0.270184,0.191146
1413393250205760512,-1.7522,3.6518,2.62837,-0.194018,0.771722,0.287824,0.53288,-0.115542,0.210786,-0.139559,-0.00312096,0.0200464,0.0638225,-0.0234961,0.267702,0.191421
1413393250255760384,-1.75776,3.66262,2.62194,-0.193934,0.771305,0.285873,0.534561,-0.108186,0.227109,-0.126527,-0.00312298,0.0200347,0.0638491,-0.0229195,0.266296,0.191122
